timestamp,heading,roll,pitch,acc_x,acc_y,acc_z,lin_acc_x,lin_acc_y,lin_acc_z,quat_w,quat_x,quat_y,quat_z,mag_x,mag_y,mag_z
1752860110069,328.0,-52.0,-139.0,-8.0,4.0,-5.0,0.1,0.3,0.1,0.5,0.16,0.84,0.15,0.0,0.0,0.0
1752860110069,327.0,-51.0,-141.0,-7.0,3.0,-5.0,0.4,-0.4,0.0,0.49,0.16,0.85,0.14,0.0,0.0,0.0
1752860110069,327.0,-51.0,-141.0,-7.0,4.0,-5.0,0.3,-0.0,-0.2,0.49,0.15,0.85,0.15,0.0,0.0,0.0
1752860110070,327.0,-51.0,-141.0,-7.0,4.0,-5.0,0.2,0.1,-0.3,0.49,0.15,0.85,0.15,0.0,0.0,0.0
1752860110070,326.0,-51.0,-141.0,-7.0,4.0,-5.0,0.3,0.3,-0.1,0.48,0.15,0.85,0.15,0.0,0.0,0.0
1752860110070,325.0,-50.0,-141.0,-7.0,4.0,-5.0,0.0,0.1,-0.1,0.48,0.15,0.85,0.15,0.0,0.0,0.0
1752860110070,324.0,-50.0,-140.0,-8.0,4.0,-6.0,-0.6,-0.0,-1.0,0.48,0.15,0.85,0.16,0.0,0.0,0.0
1752860110122,322.0,-49.0,-141.0,-8.0,4.0,-6.0,-0.7,-0.1,-1.0,0.47,0.15,0.86,0.16,0.0,0.0,0.0
1752860110122,320.0,-48.0,-142.0,-7.0,4.0,-5.0,0.0,-0.4,0.3,0.46,0.15,0.86,0.16,0.0,0.0,0.0
1752860110162,319.0,-47.0,-142.0,-6.0,3.0,-4.0,0.8,-0.8,1.3,0.45,0.14,0.86,0.17,0.0,0.0,0.0
1752860110216,318.0,-47.0,-143.0,-6.0,4.0,-4.0,0.9,-0.5,1.2,0.44,0.13,0.87,0.17,0.0,0.0,0.0
1752860110381,321.0,-47.0,-146.0,-6.0,4.0,-6.0,0.8,0.5,-0.4,0.44,0.13,0.87,0.17,0.0,0.0,0.0
1752860110408,320.0,-47.0,-146.0,-6.0,3.0,-6.0,0.8,-0.5,-0.3,0.44,0.12,0.88,0.16,0.0,0.0,0.0
1752860110449,317.0,-46.0,-146.0,-6.0,3.0,-6.0,0.6,-1.4,-0.1,0.43,0.11,0.88,0.17,0.0,0.0,0.0
1752860110493,314.0,-45.0,-146.0,-7.0,2.0,-6.0,0.1,-1.4,-0.2,0.42,0.1,0.88,0.17,0.0,0.0,0.0
1752860110575,313.0,-43.0,-148.0,-7.0,4.0,-6.0,-0.4,0.1,-0.0,0.4,0.1,0.9,0.17,0.0,0.0,0.0
1752860110619,313.0,-42.0,-150.0,-7.0,4.0,-6.0,-0.5,0.1,0.3,0.39,0.1,0.9,0.17,0.0,0.0,0.0
1752860110769,314.0,-41.0,-151.0,-7.0,4.0,-6.0,-0.5,0.1,0.2,0.38,0.09,0.91,0.16,0.0,0.0,0.0
1752860110816,314.0,-42.0,-151.0,-7.0,3.0,-6.0,-0.4,-0.1,0.2,0.38,0.09,0.9,0.16,0.0,0.0,0.0
1752860110875,313.0,-42.0,-150.0,-7.0,4.0,-6.0,-0.3,-0.1,-0.1,0.39,0.09,0.9,0.17,0.0,0.0,0.0
1752860110922,312.0,-42.0,-149.0,-7.0,4.0,-6.0,-0.1,0.1,-0.2,0.39,0.09,0.9,0.17,0.0,0.0,0.0
1752860111120,309.0,-42.0,-147.0,-6.0,4.0,-6.0,0.1,-0.2,-0.3,0.39,0.09,0.9,0.19,0.0,0.0,0.0
1752860111277,310.0,-43.0,-148.0,-6.0,3.0,-6.0,0.4,-0.6,-0.2,0.4,0.07,0.9,0.19,0.0,0.0,0.0
1752860111327,311.0,-44.0,-149.0,-6.0,3.0,-6.0,0.4,-0.2,0.0,0.4,0.07,0.9,0.18,0.0,0.0,0.0
1752860111578,313.0,-44.0,-150.0,-6.0,4.0,-6.0,0.2,0.0,0.3,0.4,0.07,0.9,0.17,0.0,0.0,0.0
1752860111625,317.0,-45.0,-151.0,-7.0,3.0,-6.0,0.0,-0.0,-0.1,0.4,0.07,0.9,0.16,0.0,0.0,0.0
1752860112225,304.0,-42.0,-139.0,-7.0,4.0,-6.0,0.0,-1.1,-0.3,0.41,0.12,0.87,0.22,0.0,0.0,0.0
1752860112264,306.0,-42.0,-141.0,-7.0,4.0,-5.0,0.1,-0.8,0.2,0.41,0.12,0.88,0.21,0.0,0.0,0.0
1752860112414,313.0,-44.0,-145.0,-7.0,5.0,-6.0,-0.5,0.4,0.0,0.41,0.11,0.88,0.21,0.0,0.0,0.0
1752860112454,314.0,-44.0,-145.0,-7.0,4.0,-6.0,-0.4,0.2,-0.1,0.42,0.11,0.88,0.18,0.0,0.0,0.0
1752860112511,315.0,-45.0,-145.0,-7.0,4.0,-6.0,-0.1,-0.3,-0.2,0.42,0.11,0.88,0.18,0.0,0.0,0.0
1752860112543,315.0,-45.0,-145.0,-7.0,4.0,-6.0,0.3,-0.2,-0.2,0.43,0.11,0.88,0.18,0.0,0.0,0.0
1752860112591,315.0,-46.0,-145.0,-6.0,4.0,-5.0,0.8,-0.1,0.4,0.43,0.11,0.88,0.18,0.0,0.0,0.0
1752860112623,316.0,-46.0,-145.0,-6.0,4.0,-6.0,0.9,-0.1,0.0,0.43,0.11,0.88,0.18,0.0,0.0,0.0
1752860112671,317.0,-47.0,-145.0,-6.0,4.0,-6.0,0.8,-0.0,-0.2,0.44,0.11,0.88,0.17,0.0,0.0,0.0
1752860112719,317.0,-47.0,-145.0,-6.0,4.0,-6.0,0.6,0.1,-0.1,0.44,0.11,0.88,0.17,0.0,0.0,0.0
1752860112968,315.0,-44.0,-146.0,-7.0,5.0,-6.0,-0.1,0.5,0.5,0.43,0.11,0.88,0.17,0.0,0.0,0.0
1752860113017,308.0,-42.0,-144.0,-7.0,5.0,-5.0,-0.1,0.7,0.4,0.4,0.11,0.89,0.2,0.0,0.0,0.0
1752860113251,309.0,-41.0,-141.0,-6.0,4.0,-6.0,0.0,-0.9,0.1,0.4,0.11,0.89,0.2,0.0,0.0,0.0
1752860113298,312.0,-42.0,-142.0,-7.0,4.0,-6.0,-0.2,-0.8,0.2,0.42,0.16,0.87,0.19,0.0,0.0,0.0
1752860113335,316.0,-43.0,-143.0,-7.0,4.0,-5.0,-0.5,-0.1,0.4,0.42,0.18,0.87,0.17,0.0,0.0,0.0
1752860113385,320.0,-44.0,-143.0,-8.0,4.0,-5.0,-0.9,0.2,0.1,0.43,0.19,0.87,0.16,0.0,0.0,0.0
1752860113418,323.0,-45.0,-142.0,-8.0,4.0,-6.0,-0.7,-0.2,-0.2,0.44,0.2,0.86,0.15,0.0,0.0,0.0
1752860113666,326.0,-47.0,-137.0,-7.0,3.0,-6.0,0.2,-2.3,-0.0,0.45,0.21,0.86,0.15,0.0,0.0,0.0
1752860113716,324.0,-47.0,-136.0,-7.0,3.0,-4.0,0.0,-0.1,1.3,0.48,0.22,0.84,0.15,0.0,0.0,0.0
1752860113769,325.0,-47.0,-139.0,-7.0,4.0,-3.0,0.3,-0.5,2.0,0.47,0.22,0.84,0.15,0.0,0.0,0.0
1752860113802,328.0,-47.0,-142.0,-7.0,3.0,-4.0,-0.1,-1.0,1.6,0.46,0.22,0.85,0.14,0.0,0.0,0.0
1752860113953,326.0,-45.0,-146.0,-7.0,3.0,-5.0,-0.1,-0.7,1.0,0.44,0.18,0.87,0.13,0.0,0.0,0.0
1752860113985,322.0,-45.0,-146.0,-7.0,2.0,-6.0,0.0,-1.5,0.0,0.43,0.16,0.87,0.15,0.0,0.0,0.0
1752860114046,321.0,-46.0,-146.0,-7.0,2.0,-6.0,-0.4,-1.9,-0.7,0.43,0.15,0.88,0.15,0.0,0.0,0.0
1752860114071,322.0,-46.0,-146.0,-7.0,3.0,-6.0,0.3,-0.6,-0.1,0.43,0.14,0.88,0.15,0.0,0.0,0.0
1752860114225,325.0,-47.0,-150.0,-7.0,5.0,-5.0,-0.1,0.9,0.9,0.43,0.13,0.88,0.15,0.0,0.0,0.0
1752860114276,326.0,-47.0,-151.0,-7.0,4.0,-5.0,-0.1,1.1,1.0,0.43,0.13,0.89,0.13,0.0,0.0,0.0
1752860114308,325.0,-47.0,-150.0,-7.0,4.0,-5.0,-0.2,0.9,1.0,0.43,0.12,0.88,0.13,0.0,0.0,0.0
1752860114457,319.0,-46.0,-147.0,-7.0,4.0,-5.0,0.1,-0.9,0.8,0.43,0.12,0.88,0.15,0.0,0.0,0.0
1752860114494,318.0,-45.0,-147.0,-7.0,3.0,-4.0,-0.1,-1.0,1.2,0.42,0.12,0.88,0.16,0.0,0.0,0.0
1752860114552,318.0,-45.0,-147.0,-7.0,4.0,-5.0,-0.4,0.8,1.1,0.42,0.12,0.88,0.16,0.0,0.0,0.0
1752860114585,322.0,-45.0,-149.0,-6.0,7.0,-7.0,0.8,3.4,-1.2,0.42,0.12,0.89,0.15,0.0,0.0,0.0
1752860114641,324.0,-46.0,-150.0,-8.0,3.0,-6.0,-0.5,-0.1,-0.1,0.42,0.13,0.89,0.14,0.0,0.0,0.0
1752860114762,322.0,-46.0,-148.0,-8.0,3.0,-6.0,-0.1,-0.2,0.1,0.43,0.12,0.88,0.15,0.0,0.0,0.0
1752860114807,322.0,-46.0,-148.0,-7.0,4.0,-6.0,0.0,0.0,0.0,0.43,0.12,0.88,0.15,0.0,0.0,0.0
1752860114865,320.0,-47.0,-147.0,-7.0,3.0,-6.0,0.4,-0.5,0.0,0.43,0.12,0.88,0.15,0.0,0.0,0.0
1752860114904,320.0,-47.0,-146.0,-7.0,3.0,-6.0,0.2,-0.3,-0.2,0.44,0.12,0.88,0.16,0.0,0.0,0.0
1752860114939,320.0,-47.0,-146.0,-7.0,4.0,-6.0,0.4,-0.2,-0.0,0.44,0.12,0.88,0.16,0.0,0.0,0.0
1752860115080,321.0,-47.0,-145.0,-7.0,3.0,-6.0,0.2,-0.4,-0.1,0.44,0.12,0.88,0.16,0.0,0.0,0.0
1752860115132,321.0,-47.0,-145.0,-7.0,3.0,-6.0,0.4,-0.7,-0.3,0.44,0.13,0.87,0.16,0.0,0.0,0.0
1752860115270,322.0,-47.0,-145.0,-7.0,3.0,-6.0,0.1,-0.3,-0.2,0.45,0.13,0.87,0.15,0.0,0.0,0.0
1752860115317,322.0,-47.0,-146.0,-7.0,4.0,-6.0,0.1,-0.2,-0.3,0.44,0.13,0.87,0.15,0.0,0.0,0.0
1752860115466,322.0,-47.0,-147.0,-7.0,3.0,-5.0,0.2,-0.6,0.2,0.44,0.13,0.87,0.15,0.0,0.0,0.0
1752860115609,324.0,-47.0,-148.0,-7.0,4.0,-6.0,-0.0,0.1,-0.1,0.44,0.13,0.88,0.15,0.0,0.0,0.0
1752860115659,325.0,-47.0,-149.0,-7.0,4.0,-6.0,0.1,0.1,0.0,0.44,0.13,0.88,0.14,0.0,0.0,0.0
1752860115706,325.0,-47.0,-149.0,-7.0,3.0,-5.0,0.1,0.1,0.2,0.44,0.13,0.88,0.14,0.0,0.0,0.0
1752860115740,326.0,-47.0,-149.0,-7.0,3.0,-6.0,0.1,-0.3,0.1,0.44,0.13,0.88,0.14,0.0,0.0,0.0
1752860115877,329.0,-47.0,-151.0,-7.0,4.0,-6.0,-0.1,0.3,-0.5,0.44,0.13,0.88,0.13,0.0,0.0,0.0
1752860115927,329.0,-47.0,-152.0,-7.0,4.0,-6.0,-0.0,0.4,-0.2,0.43,0.13,0.89,0.12,0.0,0.0,0.0
1752860116074,329.0,-47.0,-152.0,-7.0,3.0,-6.0,0.2,0.0,-0.1,0.43,0.13,0.89,0.12,0.0,0.0,0.0
1752860116932,328.0,-48.0,-151.0,-7.0,3.0,-6.0,-0.0,-0.0,-0.0,0.44,0.13,0.88,0.12,0.0,0.0,0.0
1752860116982,328.0,-48.0,-151.0,-7.0,3.0,-6.0,0.0,-0.3,0.0,0.44,0.13,0.88,0.12,0.0,0.0,0.0
1752860117032,328.0,-48.0,-151.0,-7.0,3.0,-6.0,0.0,-0.2,0.0,0.44,0.12,0.88,0.12,0.0,0.0,0.0
1752860117180,329.0,-48.0,-151.0,-7.0,3.0,-6.0,0.1,-0.0,0.1,0.44,0.12,0.88,0.12,0.0,0.0,0.0
1752860117333,330.0,-48.0,-152.0,-7.0,3.0,-6.0,0.1,-0.1,0.1,0.44,0.11,0.88,0.12,0.0,0.0,0.0
1752860117379,329.0,-48.0,-152.0,-7.0,3.0,-6.0,0.0,-0.1,-0.1,0.44,0.11,0.88,0.12,0.0,0.0,0.0
1752860117525,329.0,-48.0,-152.0,-7.0,3.0,-6.0,-0.4,-0.1,-0.1,0.44,0.11,0.88,0.12,0.0,0.0,0.0
1752860117782,332.0,-50.0,-152.0,-8.0,3.0,-6.0,0.4,0.1,0.2,0.45,0.12,0.88,0.11,0.0,0.0,0.0
1752860117826,337.0,-53.0,-152.0,-7.0,3.0,-5.0,0.8,0.2,0.3,0.47,0.12,0.87,0.1,0.0,0.0,0.0
1752860117985,340.0,-55.0,-151.0,-7.0,2.0,-5.0,0.9,-0.3,0.0,0.49,0.13,0.86,0.09,0.0,0.0,0.0
1752860118119,340.0,-53.0,-152.0,-8.0,3.0,-5.0,-0.3,-0.1,-0.1,0.49,0.13,0.86,0.08,0.0,0.0,0.0
1752860118266,339.0,-51.0,-152.0,-9.0,3.0,-5.0,-0.8,-0.2,0.0,0.47,0.15,0.86,0.08,0.0,0.0,0.0
1752860118317,340.0,-51.0,-153.0,-9.0,2.0,-5.0,-1.4,-0.5,0.0,0.46,0.15,0.87,0.08,0.0,0.0,0.0
1752860118352,341.0,-52.0,-153.0,-9.0,2.0,-5.0,-1.5,-0.4,0.0,0.47,0.16,0.87,0.08,0.0,0.0,0.0
1752860118387,342.0,-52.0,-153.0,-10.0,2.0,-6.0,-1.8,-0.4,-0.1,0.47,0.16,0.87,0.07,0.0,0.0,0.0
1752860118439,345.0,-54.0,-154.0,-10.0,2.0,-5.0,-1.9,-0.3,-0.0,0.48,0.16,0.86,0.06,0.0,0.0,0.0
1752860118592,348.0,-56.0,-154.0,-10.0,2.0,-5.0,-0.2,0.3,-0.1,0.49,0.16,0.85,0.05,0.0,0.0,0.0
1752860118625,359.0,-66.0,-150.0,-8.0,2.0,-3.0,0.8,0.1,0.6,0.57,0.17,0.81,0.01,0.0,0.0,0.0
1752860118775,4.0,-72.0,-130.0,1.0,10.0,-2.0,10.6,7.3,0.3,0.59,0.17,0.79,-0.0,0.0,0.0,0.0
1752860118909,357.0,-66.0,-123.0,2.0,7.0,-4.0,3.6,-1.7,-7.4,0.63,0.24,0.74,0.0,0.0,0.0,0.0
1752860118955,307.0,-33.0,-139.0,-4.0,3.0,-14.0,0.9,-1.9,-8.5,0.38,0.29,0.86,0.19,0.0,0.0,0.0
1752860119099,29.0,-25.0,-145.0,-6.0,3.0,-14.0,-4.5,-1.4,-5.0,0.29,0.23,0.91,0.21,0.0,0.0,0.0
1752860119136,349.0,-10.0,-156.0,-5.0,0.0,-13.0,-3.5,-3.8,-4.2,0.07,-0.08,0.97,0.21,0.0,0.0,0.0
1752860119183,342.0,-9.0,-155.0,-4.0,1.0,-11.0,-1.9,-3.1,-2.1,0.05,-0.14,0.96,0.22,0.0,0.0,0.0
1752860119535,358.0,-29.0,-164.0,-7.0,2.0,-11.0,-2.3,0.1,-2.3,0.23,-0.03,0.96,0.14,0.0,0.0,0.0
1752860119576,3.0,-35.0,-165.0,-8.0,2.0,-10.0,-1.7,0.4,-2.1,0.29,0.02,0.95,0.11,0.0,0.0,0.0
1752860119728,356.0,-58.0,-160.0,-6.0,4.0,-6.0,2.8,1.8,-1.6,0.35,0.06,0.93,0.08,0.0,0.0,0.0
1752860119862,3.0,-70.0,-137.0,-5.0,4.0,-3.0,3.9,1.9,-0.4,0.61,0.21,0.76,-0.02,0.0,0.0,0.0
1752860119903,3.0,-72.0,-129.0,-5.0,4.0,-1.0,4.8,1.5,0.7,0.63,0.21,0.74,-0.02,0.0,0.0,0.0
1752860119942,4.0,-73.0,-122.0,-5.0,5.0,-1.0,4.5,2.9,0.2,0.65,0.22,0.73,-0.02,0.0,0.0,0.0
1752860119987,3.0,-72.0,-115.0,-5.0,5.0,-1.0,4.6,2.6,0.2,0.66,0.22,0.72,-0.02,0.0,0.0,0.0
1752860120029,0.0,-70.0,-112.0,-4.0,6.0,-2.0,5.0,2.8,-0.5,0.66,0.23,0.71,-0.0,0.0,0.0,0.0
1752860120225,337.0,-53.0,-119.0,0.0,6.0,-7.0,8.0,-0.0,-4.2,0.66,0.25,0.71,0.02,0.0,0.0,0.0
1752860120225,328.0,-46.0,-125.0,0.0,5.0,-11.0,6.9,-1.0,-6.9,0.53,0.31,0.78,0.15,0.0,0.0,0.0
1752860120268,315.0,-38.0,-135.0,-4.0,4.0,-14.0,1.5,-2.4,-8.7,0.45,0.3,0.82,0.18,0.0,0.0,0.0
1752860120303,302.0,-31.0,-144.0,-8.0,2.0,-19.0,0.0,0.0,0.0,0.34,0.24,0.89,0.19,0.0,0.0,0.0
1752860120442,339.0,-8.0,-156.0,-4.0,2.0,-10.0,-3.0,-1.9,-1.1,0.25,0.14,0.94,0.19,0.0,0.0,0.0
1752860120482,329.0,-9.0,-156.0,-3.0,2.0,-13.0,-1.8,-2.0,-4.1,0.02,-0.24,0.94,0.22,0.0,0.0,0.0
1752860120524,321.0,-10.0,-155.0,-3.0,1.0,-12.0,-1.1,-3.0,-2.9,0.02,-0.31,0.92,0.23,0.0,0.0,0.0
1752860120681,312.0,-17.0,-153.0,-1.0,1.0,-9.0,1.6,-2.9,-1.0,0.02,-0.35,0.9,0.24,0.0,0.0,0.0
1752860120721,312.0,-18.0,-152.0,-2.0,2.0,-9.0,1.5,-2.1,-1.0,0.06,-0.39,0.88,0.28,0.0,0.0,0.0
1752860120765,313.0,-19.0,-153.0,-2.0,1.0,-9.0,1.8,-3.0,-1.0,0.07,-0.38,0.88,0.27,0.0,0.0,0.0
1752860120811,314.0,-21.0,-152.0,-7.0,2.0,-5.0,-3.4,-1.9,3.5,0.08,-0.38,0.88,0.28,0.0,0.0,0.0
1752860120848,310.0,-14.0,-153.0,-0.0,4.0,-10.0,2.0,-0.2,-1.6,0.02,-0.41,0.87,0.27,0.0,0.0,0.0
1752860120898,316.0,-16.0,-157.0,-3.0,3.0,-10.0,-0.1,-0.5,-1.5,0.05,-0.37,0.9,0.23,0.0,0.0,0.0
1752860120931,321.0,-18.0,-159.0,-5.0,3.0,-10.0,-2.3,-0.2,-0.9,0.08,-0.33,0.91,0.22,0.0,0.0,0.0
1752860120972,327.0,-19.0,-160.0,-4.0,2.0,-10.0,0.3,-1.3,-1.7,0.11,-0.29,0.93,0.21,0.0,0.0,0.0
1752860121015,334.0,-21.0,-162.0,-8.0,1.0,-8.0,-3.8,-1.8,0.4,0.15,-0.22,0.94,0.19,0.0,0.0,0.0
1752860121065,341.0,-25.0,-163.0,-6.0,1.0,-10.0,-4.3,-0.9,0.6,0.2,-0.16,0.95,0.17,0.0,0.0,0.0
1752860121098,348.0,-30.0,-165.0,-7.0,2.0,-10.0,-4.9,-0.3,-0.1,0.24,-0.1,0.95,0.14,0.0,0.0,0.0
1752860121700,347.0,-62.0,-116.0,-0.0,8.0,-6.0,8.0,2.8,-4.8,0.63,0.25,0.74,0.07,0.0,0.0,0.0
1752860121734,334.0,-53.0,-128.0,-4.0,6.0,-13.0,3.5,1.5,-8.7,0.57,0.26,0.78,0.11,0.0,0.0,0.0
1752860121784,322.0,-45.0,-138.0,-7.0,6.0,-14.0,0.0,0.0,0.0,0.48,0.24,0.83,0.15,0.0,0.0,0.0
1752860121934,353.0,-17.0,-153.0,-6.0,2.0,-13.0,-3.7,-2.4,-4.2,0.15,-0.04,0.96,0.23,0.0,0.0,0.0
1752860122169,324.0,-15.0,-153.0,-2.0,2.0,-9.0,1.5,-1.8,-0.7,0.1,-0.12,0.96,0.25,0.0,0.0,0.0
1752860122208,310.0,-21.0,-157.0,-2.0,1.0,-9.0,1.8,-2.2,-0.9,0.09,-0.41,0.87,0.25,0.0,0.0,0.0
1752860122253,310.0,-22.0,-158.0,-2.0,2.0,-10.0,1.7,-1.7,-1.3,0.1,-0.41,0.87,0.24,0.0,0.0,0.0
1752860122286,313.0,-22.0,-159.0,-2.0,2.0,-10.0,1.3,-1.6,-1.5,0.11,-0.39,0.88,0.24,0.0,0.0,0.0
1752860122327,316.0,-21.0,-159.0,-3.0,2.0,-10.0,0.8,-1.7,-1.9,0.11,-0.37,0.89,0.23,0.0,0.0,0.0
1752860122473,338.0,-23.0,-162.0,-7.0,0.0,-10.0,0.0,0.0,0.0,0.11,-0.33,0.91,0.22,0.0,0.0,0.0
1752860122518,345.0,-27.0,-164.0,-9.0,0.0,-12.0,-4.4,-1.8,-3.4,0.22,-0.13,0.96,0.16,0.0,0.0,0.0
1752860122667,347.0,-50.0,-165.0,-7.0,4.0,-8.0,1.4,2.1,-2.6,0.27,-0.06,0.95,0.13,0.0,0.0,0.0
1752860122706,353.0,-57.0,-161.0,-5.0,4.0,-7.0,4.3,2.5,-1.0,0.49,0.13,0.86,0.03,0.0,0.0,0.0
1752860122752,355.0,-62.0,-153.0,-2.0,6.0,-5.0,6.8,4.0,-1.4,0.54,0.16,0.83,0.02,0.0,0.0,0.0
1752860122787,354.0,-65.0,-140.0,0.0,8.0,-5.0,9.1,5.2,-1.5,0.57,0.19,0.8,0.03,0.0,0.0,0.0
1752860122839,351.0,-63.0,-131.0,3.0,8.0,-4.0,11.4,4.7,-1.3,0.59,0.22,0.78,0.04,0.0,0.0,0.0
1752860122879,344.0,-60.0,-127.0,4.0,7.0,-5.0,12.3,3.0,-2.4,0.59,0.24,0.77,0.07,0.0,0.0,0.0
1752860122922,336.0,-54.0,-130.0,2.0,5.0,-8.0,9.7,0.5,-3.5,0.55,0.25,0.79,0.11,0.0,0.0,0.0
1752860122972,324.0,-45.0,-138.0,-1.0,5.0,-12.0,4.3,0.1,-6.2,0.48,0.24,0.83,0.14,0.0,0.0,0.0
1752860123013,310.0,-36.0,-147.0,-5.0,4.0,-14.0,-0.6,-0.8,-6.7,0.37,0.18,0.9,0.17,0.0,0.0,0.0
1752860123055,13.0,-27.0,-153.0,-8.0,1.0,-13.0,-4.3,-3.9,-4.1,0.26,0.11,0.94,0.18,0.0,0.0,0.0
1752860123087,358.0,-17.0,-158.0,-7.0,1.0,-11.0,-4.0,-2.6,-2.1,0.16,0.01,0.97,0.19,0.0,0.0,0.0
1752860123138,346.0,-12.0,-160.0,-6.0,1.0,-12.0,-4.0,-1.9,-3.3,0.1,-0.1,0.97,0.19,0.0,0.0,0.0
1752860123268,317.0,-13.0,-163.0,-3.0,-0.0,-11.0,-0.4,-3.2,-1.4,0.06,-0.19,0.96,0.18,0.0,0.0,0.0
1752860123312,311.0,-15.0,-164.0,-2.0,-1.0,-10.0,0.7,-3.6,-0.9,0.06,-0.4,0.9,0.18,0.0,0.0,0.0
1752860123353,309.0,-17.0,-164.0,-1.0,-0.0,-10.0,1.8,-3.0,-0.9,0.07,-0.42,0.88,0.18,0.0,0.0,0.0
1752860123387,308.0,-18.0,-165.0,-1.0,-1.0,-10.0,1.8,-3.4,-1.2,0.08,-0.43,0.88,0.18,0.0,0.0,0.0
1752860123434,310.0,-19.0,-165.0,-2.0,0.0,-10.0,1.2,-2.5,-1.5,0.09,-0.42,0.89,0.18,0.0,0.0,0.0
1752860123587,333.0,-21.0,-164.0,-6.0,-0.0,-10.0,-2.4,-2.1,-1.1,0.14,-0.25,0.94,0.17,0.0,0.0,0.0
1752860123636,343.0,-24.0,-164.0,-6.0,2.0,-11.0,-1.8,-0.8,-1.9,0.18,-0.16,0.96,0.16,0.0,0.0,0.0
1752860123677,351.0,-28.0,-164.0,-6.0,4.0,-10.0,-0.6,2.0,-1.7,0.22,-0.09,0.96,0.15,0.0,0.0,0.0
1752860123834,358.0,-32.0,-164.0,-3.0,5.0,-6.0,4.4,2.1,0.0,0.27,-0.01,0.95,0.13,0.0,0.0,0.0
1752860123971,325.0,-43.0,-146.0,-1.0,6.0,-6.0,5.6,1.9,0.4,0.42,0.21,0.87,0.14,0.0,0.0,0.0
1752860124021,321.0,-40.0,-146.0,-1.0,6.0,-6.0,5.0,2.0,-0.0,0.41,0.22,0.88,0.14,0.0,0.0,0.0
1752860124155,16.0,-28.0,-152.0,-3.0,4.0,-11.0,0.9,-0.5,-3.1,0.38,0.21,0.89,0.16,0.0,0.0,0.0
1752860124190,7.0,-23.0,-156.0,-5.0,3.0,-12.0,-1.0,-1.0,-3.8,0.23,0.08,0.95,0.19,0.0,0.0,0.0
1752860124233,358.0,-18.0,-158.0,-5.0,1.0,-11.0,-2.5,-2.4,-2.4,0.17,0.0,0.97,0.19,0.0,0.0,0.0
1752860124276,348.0,-15.0,-159.0,-5.0,1.0,-10.0,-2.2,-1.9,-1.4,0.12,-0.08,0.97,0.19,0.0,0.0,0.0
1752860124320,338.0,-12.0,-159.0,-4.0,1.0,-11.0,0.0,0.0,0.0,0.07,-0.19,0.96,0.19,0.0,0.0,0.0
1752860124361,327.0,-11.0,-160.0,-3.0,2.0,-10.0,-1.5,-1.7,-0.7,0.05,-0.26,0.95,0.19,0.0,0.0,0.0
1752860124399,320.0,-12.0,-161.0,-3.0,1.0,-11.0,-1.2,-1.8,-1.5,0.04,-0.32,0.93,0.19,0.0,0.0,0.0
1752860124438,314.0,-14.0,-161.0,-3.0,0.0,-10.0,0.0,0.0,0.0,0.05,-0.37,0.91,0.19,0.0,0.0,0.0
1752860124596,305.0,-18.0,-162.0,-1.0,1.0,-9.0,1.8,-2.3,-0.2,0.05,-0.41,0.89,0.19,0.0,0.0,0.0
1752860124634,306.0,-18.0,-161.0,-1.0,1.0,-9.0,2.0,-2.5,-0.4,0.07,-0.44,0.87,0.21,0.0,0.0,0.0
1752860124675,309.0,-18.0,-161.0,-2.0,1.0,-10.0,1.4,-2.4,-1.0,0.08,-0.42,0.88,0.21,0.0,0.0,0.0
1752860124720,313.0,-18.0,-161.0,-2.0,1.0,-10.0,0.5,-2.3,-1.0,0.08,-0.4,0.89,0.21,0.0,0.0,0.0
1752860124874,147.0,-18.0,-163.0,-5.0,2.0,-10.0,-2.4,-1.0,-1.4,0.18,0.94,0.28,-0.11,0.0,0.0,0.0
1752860124906,156.0,-21.0,-164.0,-6.0,2.0,-10.0,-2.7,-0.6,-1.7,0.17,0.95,0.22,-0.14,0.0,0.0,0.0
1752860124942,163.0,-24.0,-165.0,-6.0,3.0,-10.0,-2.4,0.6,-1.5,0.16,0.96,0.16,-0.18,0.0,0.0,0.0
1752860124992,170.0,-28.0,-165.0,-6.0,4.0,-10.0,-1.5,1.5,-1.4,0.15,0.96,0.1,-0.22,0.0,0.0,0.0
1752860125832,173.0,-12.0,-156.0,-3.0,-1.0,-11.0,-1.3,-4.6,-2.4,0.21,0.97,0.06,-0.09,0.0,0.0,0.0
1752860125968,134.0,-12.0,-156.0,-1.0,1.0,-10.0,1.4,-2.6,-1.0,0.23,0.92,0.31,0.0,0.0,0.0,0.0
1752860126117,136.0,-14.0,-158.0,-1.0,2.0,-11.0,1.5,-1.8,-1.7,0.22,0.9,0.36,-0.05,0.0,0.0,0.0
1752860126155,140.0,-14.0,-158.0,-1.0,2.0,-10.0,0.9,-1.5,-1.4,0.22,0.91,0.34,-0.06,0.0,0.0,0.0
1752860126205,145.0,-15.0,-159.0,-2.0,2.0,-10.0,0.3,-1.6,-1.6,0.21,0.93,0.3,-0.07,0.0,0.0,0.0
1752860126250,150.0,-15.0,-159.0,-3.0,1.0,-10.0,-0.4,-2.3,-1.9,0.21,0.94,0.26,-0.08,0.0,0.0,0.0
1752860126386,174.0,-23.0,-160.0,-5.0,3.0,-10.0,-1.5,-0.1,-1.7,0.17,0.97,0.06,-0.18,0.0,0.0,0.0
1752860126645,162.0,-54.0,-152.0,-6.0,4.0,-6.0,1.8,1.7,-1.0,0.12,0.92,-0.1,-0.35,0.0,0.0,0.0
1752860126783,171.0,-68.0,-134.0,-5.0,3.0,-2.0,4.4,0.8,0.6,0.07,0.84,-0.16,-0.52,0.0,0.0,0.0
1752860126822,173.0,-71.0,-123.0,-3.0,6.0,-1.0,6.8,4.3,0.3,0.04,0.76,-0.16,-0.63,0.0,0.0,0.0
1752860126871,172.0,-72.0,-115.0,-1.0,8.0,-1.0,9.3,5.3,-0.6,0.05,0.73,-0.17,-0.66,0.0,0.0,0.0
1752860127002,147.0,-53.0,-126.0,-0.0,6.0,-9.0,7.2,1.6,-5.6,0.06,0.73,-0.17,-0.66,0.0,0.0,0.0
1752860127044,132.0,-43.0,-135.0,-2.0,4.0,-13.0,3.9,-0.6,-7.6,0.19,0.83,-0.2,-0.48,0.0,0.0,0.0
1752860127086,112.0,-31.0,-144.0,-5.0,2.0,-16.0,-0.5,-2.8,-8.4,0.21,0.89,-0.18,-0.36,0.0,0.0,0.0
1752860127136,194.0,-22.0,-149.0,-6.0,-0.0,-16.0,-3.7,-4.6,-7.6,0.22,0.94,-0.11,-0.22,0.0,0.0,0.0
1752860127170,179.0,-9.0,-155.0,-6.0,-1.0,-12.0,0.0,0.0,0.0,0.22,0.97,-0.01,-0.1,0.0,0.0,0.0
1752860127220,165.0,-2.0,-158.0,-4.0,2.0,-11.0,-3.6,-0.7,-2.2,0.19,0.97,0.13,0.0,0.0,0.0,0.0
1752860127253,149.0,0.0,-161.0,-3.0,2.0,-14.0,-3.3,-1.6,-4.5,0.17,0.96,0.24,0.04,0.0,0.0,0.0
1752860127294,139.0,-1.0,-162.0,-2.0,2.0,-13.0,-1.4,-0.6,-3.3,0.15,0.93,0.33,0.05,0.0,0.0,0.0
1752860127334,132.0,-2.0,-163.0,-0.0,0.0,-12.0,-0.0,-2.5,-2.9,0.14,0.91,0.39,0.05,0.0,0.0,0.0
1752860127487,127.0,-4.0,-162.0,-0.0,0.0,-11.0,2.6,-2.3,-0.6,0.15,0.89,0.43,0.04,0.0,0.0,0.0
1752860127537,126.0,-8.0,-161.0,1.0,0.0,-11.0,2.6,-2.7,-1.3,0.17,0.88,0.45,0.01,0.0,0.0,0.0
1752860127572,130.0,-8.0,-161.0,1.0,1.0,-11.0,2.5,-2.4,-1.6,0.18,0.89,0.42,0.0,0.0,0.0,0.0
1752860127621,135.0,-8.0,-161.0,0.0,1.0,-11.0,1.7,-2.1,-1.8,0.18,0.91,0.38,-0.0,0.0,0.0,0.0
1752860127654,140.0,-8.0,-161.0,-0.0,2.0,-11.0,0.8,-1.5,-1.4,0.18,0.93,0.34,-0.01,0.0,0.0,0.0
1752860127896,184.0,-21.0,-163.0,-3.0,5.0,-10.0,0.4,1.9,-1.1,0.17,0.94,0.28,-0.02,0.0,0.0,0.0
1752860127955,190.0,-26.0,-161.0,-3.0,4.0,-8.0,1.9,1.4,-0.3,0.13,0.96,-0.07,-0.22,0.0,0.0,0.0
1752860128284,141.0,-37.0,-152.0,2.0,6.0,-10.0,6.3,1.5,-2.2,0.13,0.9,-0.2,-0.37,0.0,0.0,0.0
1752860128336,195.0,-27.0,-152.0,-1.0,4.0,-12.0,2.0,-0.2,-4.3,0.19,0.94,-0.13,-0.27,0.0,0.0,0.0
1752860128384,182.0,-20.0,-155.0,-4.0,3.0,-12.0,-0.7,-0.4,-3.5,0.2,0.96,-0.02,-0.18,0.0,0.0,0.0
1752860128423,166.0,-13.0,-157.0,-4.0,1.0,-11.0,-1.7,-3.4,-2.1,0.21,0.97,0.09,-0.11,0.0,0.0,0.0
1752860128475,153.0,-9.0,-157.0,-3.0,-0.0,-10.0,-0.9,-3.9,-0.9,0.22,0.95,0.23,-0.03,0.0,0.0,0.0
1752860128506,141.0,-8.0,-157.0,-1.0,2.0,-11.0,0.5,-1.9,-2.1,0.21,0.92,0.32,0.0,0.0,0.0,0.0
1752860128544,130.0,-9.0,-158.0,-1.0,0.0,-14.0,0.5,-3.7,-4.8,0.21,0.89,0.4,0.01,0.0,0.0,0.0
1752860128591,124.0,-11.0,-158.0,-0.0,1.0,-11.0,1.8,-2.8,-2.4,0.21,0.87,0.45,0.0,0.0,0.0,0.0
1752860128727,116.0,-16.0,-158.0,0.0,1.0,-9.0,2.9,-2.1,-0.2,0.22,0.85,0.48,-0.01,0.0,0.0,0.0
1752860128882,117.0,-16.0,-159.0,-0.0,1.0,-10.0,1.5,-1.5,-1.1,0.23,0.83,0.51,-0.03,0.0,0.0,0.0
1752860128933,132.0,-10.0,-160.0,-1.0,2.0,-11.0,0.7,-1.0,-1.6,0.19,0.89,0.41,-0.01,0.0,0.0,0.0
1752860128966,138.0,-9.0,-161.0,-1.0,3.0,-11.0,0.0,-0.2,-1.3,0.18,0.92,0.35,-0.01,0.0,0.0,0.0
1752860129008,148.0,-8.0,-162.0,-2.0,3.0,-11.0,-0.8,-0.5,-1.9,0.17,0.94,0.29,-0.02,0.0,0.0,0.0
1752860129050,156.0,-9.0,-162.0,-3.0,3.0,-11.0,-1.4,-0.2,-2.1,0.17,0.96,0.22,-0.04,0.0,0.0,0.0
1752860129193,183.0,-20.0,-163.0,-4.0,4.0,-10.0,-0.3,1.5,-1.7,0.16,0.97,0.15,-0.07,0.0,0.0,0.0
1752860129335,199.0,-35.0,-158.0,-4.0,5.0,-7.0,2.4,1.7,0.1,0.13,0.97,-0.06,-0.21,0.0,0.0,0.0
1752860129385,202.0,-39.0,-157.0,-4.0,5.0,-7.0,2.7,2.3,-0.2,0.1,0.91,-0.18,-0.37,0.0,0.0,0.0
1752860129426,155.0,-43.0,-155.0,-4.0,5.0,-6.0,2.8,1.7,0.5,0.09,0.89,-0.19,-0.4,0.0,0.0,0.0
1752860129469,158.0,-46.0,-154.0,-4.0,5.0,-5.0,3.0,1.8,0.9,0.08,0.88,-0.19,-0.42,0.0,0.0,0.0
1752860129510,159.0,-47.0,-153.0,-4.0,4.0,-5.0,3.1,1.3,0.9,0.08,0.87,-0.19,-0.44,0.0,0.0,0.0
1752860129552,160.0,-48.0,-152.0,-4.0,5.0,-5.0,3.4,1.8,0.9,0.08,0.87,-0.19,-0.45,0.0,0.0,0.0
1752860129602,158.0,-48.0,-151.0,-3.0,6.0,-5.0,4.1,2.8,1.1,0.08,0.87,-0.2,-0.45,0.0,0.0,0.0
1752860129649,156.0,-47.0,-150.0,-2.0,7.0,-4.0,4.8,3.9,1.7,0.09,0.87,-0.2,-0.44,0.0,0.0,0.0
1752860130241,113.0,-22.0,-159.0,0.0,0.0,-9.0,3.8,-2.9,-0.7,0.25,0.8,0.54,-0.06,0.0,0.0,0.0
1752860130386,125.0,-17.0,-160.0,-1.0,2.0,-11.0,1.3,-1.6,-1.9,0.22,0.86,0.46,-0.06,0.0,0.0,0.0
1752860130530,131.0,-15.0,-160.0,-3.0,2.0,-11.0,0.0,0.0,0.0,0.21,0.89,0.41,-0.05,0.0,0.0,0.0
1752860130576,159.0,-12.0,-162.0,-4.0,3.0,-11.0,-1.4,0.2,-1.7,0.17,0.96,0.19,-0.07,0.0,0.0,0.0
1752860130619,166.0,-14.0,-163.0,-4.0,4.0,-10.0,-1.1,1.3,-1.1,0.16,0.98,0.12,-0.1,0.0,0.0,0.0
1752860130656,173.0,-16.0,-164.0,-3.0,4.0,-10.0,-0.6,1.7,-0.7,0.14,0.98,0.06,-0.13,0.0,0.0,0.0
1752860130699,181.0,-20.0,-164.0,-4.0,4.0,-10.0,-0.1,1.8,-1.0,0.13,0.98,0.0,-0.17,0.0,0.0,0.0
1752860130746,187.0,-23.0,-164.0,-3.0,5.0,-9.0,0.7,2.4,-0.6,0.12,0.97,-0.05,-0.2,0.0,0.0,0.0
1752860130783,191.0,-26.0,-164.0,-3.0,5.0,-9.0,1.3,2.4,-0.4,0.11,0.96,-0.09,-0.24,0.0,0.0,0.0
1752860130835,197.0,-31.0,-162.0,-3.0,5.0,-8.0,1.8,2.3,-0.2,0.1,0.95,-0.13,-0.28,0.0,0.0,0.0
1752860130870,200.0,-34.0,-160.0,-4.0,5.0,-7.0,2.4,1.3,0.7,0.1,0.93,-0.17,-0.32,0.0,0.0,0.0
1752860130911,204.0,-38.0,-157.0,-3.0,5.0,-6.0,3.0,1.7,0.9,0.1,0.91,-0.19,-0.36,0.0,0.0,0.0
1752860130950,153.0,-41.0,-154.0,-3.0,5.0,-6.0,3.4,1.8,1.0,0.09,0.9,-0.21,-0.38,0.0,0.0,0.0
1752860130991,154.0,-42.0,-152.0,-3.0,6.0,-5.0,4.0,2.3,1.6,0.09,0.88,-0.23,-0.4,0.0,0.0,0.0
1752860131441,144.0,-38.0,-147.0,2.0,7.0,-12.0,0.2,-4.7,-5.3,0.1,0.87,-0.24,-0.41,0.0,0.0,0.0
1752860131484,135.0,-9.0,-153.0,-0.0,1.0,-12.0,1.2,-3.2,-3.3,0.25,0.9,0.37,0.02,0.0,0.0,0.0
1752860131530,125.0,-12.0,-152.0,-0.0,-0.0,-11.0,2.0,-4.9,-2.6,0.25,0.87,0.43,0.02,0.0,0.0,0.0
1752860131575,119.0,-14.0,-152.0,-0.0,-1.0,-11.0,2.3,-5.7,-2.6,0.27,0.83,0.49,0.01,0.0,0.0,0.0
1752860131616,115.0,-17.0,-152.0,0.0,-0.0,-10.0,3.2,-4.5,-0.9,0.28,0.81,0.52,0.0,0.0,0.0,0.0
1752860131652,111.0,-19.0,-152.0,0.0,-0.0,-9.0,3.4,-4.3,-1.0,0.28,0.79,0.54,-0.01,0.0,0.0,0.0
1752860131691,111.0,-19.0,-153.0,0.0,1.0,-9.0,3.3,-2.8,-1.0,0.28,0.79,0.55,-0.01,0.0,0.0,0.0
1752860131849,121.0,-16.0,-155.0,-1.0,2.0,-10.0,1.7,-1.6,-2.6,0.27,0.79,0.54,-0.02,0.0,0.0,0.0
1752860131885,128.0,-15.0,-155.0,-1.0,3.0,-11.0,0.9,-0.9,-2.1,0.25,0.87,0.42,-0.02,0.0,0.0,0.0
1752860132035,164.0,-13.0,-156.0,-4.0,3.0,-11.0,-1.9,-0.9,-2.7,0.24,0.9,0.36,-0.03,0.0,0.0,0.0
1752860132082,174.0,-16.0,-157.0,-5.0,4.0,-11.0,-1.9,0.0,-2.9,0.2,0.97,0.05,-0.13,0.0,0.0,0.0
1752860132109,183.0,-21.0,-157.0,-5.0,4.0,-11.0,-1.3,0.5,-3.1,0.19,0.96,-0.03,-0.19,0.0,0.0,0.0
1752860132152,193.0,-29.0,-156.0,-5.0,5.0,-11.0,0.0,1.4,-3.1,0.16,0.95,-0.09,-0.26,0.0,0.0,0.0
1752860132202,199.0,-36.0,-154.0,-5.0,5.0,-9.0,1.4,2.0,-2.1,0.14,0.92,-0.14,-0.33,0.0,0.0,0.0
1752860132349,165.0,-56.0,-140.0,-4.0,5.0,-6.0,4.5,1.6,-1.6,0.12,0.89,-0.18,-0.39,0.0,0.0,0.0
1752860132384,168.0,-59.0,-135.0,-4.0,5.0,-3.0,4.9,1.0,-0.2,0.06,0.79,-0.24,-0.56,0.0,0.0,0.0
1752860132440,171.0,-62.0,-130.0,-4.0,5.0,-3.0,4.3,1.5,-0.2,0.05,0.77,-0.24,-0.58,0.0,0.0,0.0
1752860132489,172.0,-64.0,-127.0,-5.0,5.0,-3.0,3.6,1.3,-0.1,0.04,0.76,-0.24,-0.6,0.0,0.0,0.0
1752860132526,173.0,-65.0,-125.0,-5.0,4.0,-2.0,3.8,0.9,0.5,0.04,0.75,-0.24,-0.61,0.0,0.0,0.0
1752860132552,173.0,-65.0,-125.0,-5.0,5.0,-2.0,4.3,1.5,0.7,0.04,0.75,-0.23,-0.61,0.0,0.0,0.0
1752860132593,172.0,-65.0,-126.0,-6.0,5.0,-2.0,3.2,1.8,0.1,0.04,0.76,-0.23,-0.61,0.0,0.0,0.0
1752860132734,160.0,-55.0,-130.0,0.0,9.0,-3.0,7.9,4.3,1.2,0.05,0.76,-0.23,-0.6,0.0,0.0,0.0
1752860132778,150.0,-48.0,-133.0,4.0,11.0,-5.0,11.8,5.8,-1.5,0.13,0.8,-0.27,-0.52,0.0,0.0,0.0
1752860132928,200.0,-17.0,-148.0,-3.0,4.0,-20.0,-2.4,-1.8,-11.2,0.23,0.94,-0.17,-0.2,0.0,0.0,0.0
1752860132960,183.0,-9.0,-151.0,-5.0,2.0,-15.0,0.0,0.0,0.0,0.25,0.96,-0.03,-0.08,0.0,0.0,0.0
1752860133008,159.0,-3.0,-151.0,-3.0,1.0,-12.0,-2.8,-3.6,-3.0,0.25,0.96,0.14,0.0,0.0,0.0,0.0
1752860133052,140.0,-4.0,-151.0,-2.0,2.0,-14.0,-1.0,-1.2,-4.7,0.25,0.92,0.3,0.05,0.0,0.0,0.0
1752860133194,88.0,-20.0,-155.0,7.0,2.0,-11.0,9.8,-1.7,-2.4,0.28,0.69,0.67,0.01,0.0,0.0,0.0
1752860133559,87.0,-25.0,-156.0,-0.0,3.0,-10.0,3.8,-1.0,-1.8,0.29,0.65,0.7,-0.01,0.0,0.0,0.0
1752860133599,94.0,-23.0,-154.0,1.0,4.0,-11.0,4.3,-0.4,-2.6,0.29,0.69,0.66,-0.0,0.0,0.0,0.0
1752860133749,126.0,-12.0,-152.0,-2.0,5.0,-10.0,0.0,1.1,-1.2,0.29,0.73,0.62,0.0,0.0,0.0,0.0
1752860133801,137.0,-9.0,-152.0,-2.0,5.0,-11.0,-0.9,0.7,-2.5,0.25,0.9,0.36,0.01,0.0,0.0,0.0
1752860133936,151.0,-8.0,-153.0,-2.0,5.0,-11.0,-0.1,-0.8,-2.3,0.24,0.93,0.27,-0.0,0.0,0.0,0.0
1752860133977,185.0,-21.0,-154.0,-5.0,4.0,-10.0,-0.1,0.9,-2.5,0.2,0.96,-0.04,-0.2,0.0,0.0,0.0
1752860134120,154.0,-48.0,-148.0,-4.0,6.0,-6.0,3.4,2.7,-0.4,0.18,0.94,-0.1,-0.27,0.0,0.0,0.0
1752860134154,162.0,-54.0,-143.0,-3.0,6.0,-4.0,5.0,2.3,0.3,0.09,0.84,-0.21,-0.5,0.0,0.0,0.0
1752860134760,127.0,-9.0,-153.0,-1.0,-0.0,-12.0,0.9,-4.6,-3.8,0.24,0.88,0.41,0.03,0.0,0.0,0.0
1752860134902,118.0,-13.0,-154.0,1.0,-0.0,-11.0,5.1,-3.8,-2.0,0.25,0.84,0.48,0.02,0.0,0.0,0.0
1752860135052,129.0,-21.0,-153.0,-2.0,2.0,-10.0,1.4,-2.1,-2.2,0.29,0.85,0.43,-0.07,0.0,0.0,0.0
1752860135500,183.0,-27.0,-158.0,-5.0,5.0,-10.0,2.8,2.3,-0.8,0.28,0.89,0.36,-0.08,0.0,0.0,0.0
1752860135538,171.0,-58.0,-147.0,-5.0,4.0,-4.0,3.6,1.6,0.1,0.04,0.82,-0.21,-0.52,0.0,0.0,0.0
1752860135588,174.0,-61.0,-143.0,-5.0,4.0,-3.0,4.1,1.4,0.5,0.03,0.8,-0.22,-0.55,0.0,0.0,0.0
1752860135621,175.0,-63.0,-138.0,-4.0,5.0,-2.0,4.7,2.5,0.9,0.02,0.79,-0.23,-0.58,0.0,0.0,0.0
1752860135669,175.0,-64.0,-133.0,-4.0,6.0,-2.0,5.1,2.8,0.8,0.02,0.77,-0.23,-0.59,0.0,0.0,0.0
1752860135705,173.0,-64.0,-129.0,-3.0,7.0,-2.0,5.7,3.6,1.0,0.03,0.76,-0.24,-0.6,0.0,0.0,0.0
1752860135852,169.0,-61.0,-126.0,0.0,8.0,-4.0,7.3,1.7,-0.2,0.05,0.76,-0.26,-0.6,0.0,0.0,0.0
1752860135889,132.0,-37.0,-124.0,3.0,5.0,-8.0,8.2,-1.9,-3.6,0.21,0.78,-0.35,-0.48,0.0,0.0,0.0
1752860136039,204.0,-13.0,-146.0,-4.0,4.0,-19.0,-3.3,-1.2,-10.1,0.25,0.8,-0.35,-0.41,0.0,0.0,0.0
1752860136089,189.0,-7.0,-152.0,-6.0,3.0,-17.0,-4.8,-0.6,-7.3,0.24,0.96,-0.07,-0.08,0.0,0.0,0.0
1752860136123,173.0,-2.0,-154.0,-3.0,5.0,-13.0,-2.4,0.4,-4.1,0.23,0.97,0.06,-0.01,0.0,0.0,0.0
1752860136156,157.0,0.0,-152.0,-1.0,2.0,-12.0,-1.4,-2.4,-3.5,0.23,0.96,0.17,0.04,0.0,0.0,0.0
1752860136230,147.0,-0.0,-151.0,-0.0,3.0,-12.0,-0.1,-1.9,-3.6,0.24,0.93,0.26,0.07,0.0,0.0,0.0
1752860136345,128.0,-10.0,-146.0,1.0,-0.0,-10.0,2.8,-5.2,-1.7,0.25,0.91,0.32,0.07,0.0,0.0,0.0
1752860136393,127.0,-12.0,-147.0,1.0,1.0,-10.0,3.3,-3.8,-1.9,0.3,0.85,0.43,0.03,0.0,0.0,0.0
1752860136544,136.0,-14.0,-149.0,-2.0,2.0,-10.0,0.6,-2.4,-2.0,0.29,0.89,0.36,-0.02,0.0,0.0,0.0
1752860136691,163.0,-18.0,-155.0,-4.0,4.0,-10.0,-1.0,0.4,-1.7,0.23,0.95,0.15,-0.12,0.0,0.0,0.0
1752860136734,172.0,-22.0,-157.0,-5.0,5.0,-10.0,-0.7,1.1,-1.6,0.21,0.96,0.08,-0.17,0.0,0.0,0.0
1752860136984,163.0,-52.0,-153.0,-5.0,5.0,-6.0,2.8,2.4,-0.4,0.07,0.86,-0.17,-0.47,0.0,0.0,0.0
1752860137118,174.0,-64.0,-140.0,-6.0,5.0,-3.0,2.9,1.8,0.1,0.05,0.84,-0.19,-0.51,0.0,0.0,0.0
1752860137168,175.0,-66.0,-136.0,-6.0,4.0,-2.0,2.8,1.6,0.7,0.03,0.78,-0.21,-0.59,0.0,0.0,0.0
1752860137214,175.0,-67.0,-133.0,-6.0,4.0,-1.0,3.7,1.0,1.1,0.03,0.77,-0.2,-0.6,0.0,0.0,0.0
1752860137264,173.0,-67.0,-129.0,-5.0,5.0,-1.0,4.2,2.7,1.5,0.03,0.76,-0.21,-0.61,0.0,0.0,0.0
1752860137301,169.0,-65.0,-125.0,-3.0,8.0,-1.0,5.6,4.7,1.3,0.05,0.76,-0.21,-0.61,0.0,0.0,0.0
1752860137348,165.0,-62.0,-123.0,-1.0,8.0,-2.0,7.2,3.8,1.0,0.08,0.76,-0.23,-0.6,0.0,0.0,0.0
1752860137398,153.0,-54.0,-121.0,-0.0,8.0,-3.0,7.3,1.9,-0.3,0.13,0.76,-0.25,-0.58,0.0,0.0,0.0
1752860137435,140.0,-45.0,-122.0,1.0,7.0,-5.0,8.1,1.2,-1.4,0.19,0.78,-0.28,-0.52,0.0,0.0,0.0
1752860137509,103.0,-24.0,-135.0,2.0,4.0,-14.0,6.0,-2.5,-7.2,0.26,0.85,-0.3,-0.36,0.0,0.0,0.0
1752860137653,169.0,-2.0,-155.0,-2.0,4.0,-13.0,-1.6,-0.1,-3.9,0.27,0.9,-0.25,-0.25,0.0,0.0,0.0
1752860138004,115.0,-11.0,-157.0,2.0,-1.0,-10.0,3.9,-1.5,-3.3,0.21,0.95,0.2,0.04,0.0,0.0,0.0
1752860138259,169.0,-15.0,-153.0,-4.0,4.0,-12.0,-1.3,-0.1,-3.7,0.24,0.96,0.09,-0.12,0.0,0.0,0.0
1752860138289,182.0,-20.0,-154.0,-4.0,5.0,-11.0,-0.4,0.9,-3.0,0.22,0.96,0.01,-0.17,0.0,0.0,0.0
1752860138536,174.0,-61.0,-139.0,-3.0,7.0,-4.0,6.1,3.4,0.0,0.03,0.79,-0.24,-0.56,0.0,0.0,0.0
1752860138573,177.0,-65.0,-130.0,-2.0,8.0,-3.0,6.6,4.3,-0.4,0.02,0.76,-0.25,-0.6,0.0,0.0,0.0
1752860138626,177.0,-66.0,-119.0,-2.0,7.0,-1.0,7.1,3.2,0.5,0.02,0.73,-0.25,-0.63,0.0,0.0,0.0
1752860138665,174.0,-64.0,-110.0,-1.0,9.0,-1.0,8.1,5.3,0.6,0.03,0.71,-0.27,-0.65,0.0,0.0,0.0
1752860138707,168.0,-60.0,-106.0,2.0,12.0,-1.0,10.8,7.5,0.4,0.06,0.7,-0.29,-0.65,0.0,0.0,0.0
1752860138852,117.0,-31.0,-120.0,-2.0,-1.0,-17.0,2.5,-7.6,-11.7,0.11,0.69,-0.31,-0.64,0.0,0.0,0.0
1752860138893,81.0,-18.0,-137.0,-6.0,1.0,-17.0,-5.2,-4.1,-10.0,0.3,0.86,-0.27,-0.3,0.0,0.0,0.0
1752860138934,192.0,-7.0,-147.0,-8.0,3.0,-17.0,-7.2,-1.1,-7.4,0.28,0.95,-0.1,-0.09,0.0,0.0,0.0
1752860138978,166.0,2.0,-152.0,-5.0,5.0,-12.0,-5.3,0.5,-3.6,0.24,0.97,0.08,0.03,0.0,0.0,0.0
1752860139115,119.0,-5.0,-156.0,1.0,-0.0,-12.0,1.5,-4.2,-3.5,0.2,0.95,0.24,0.08,0.0,0.0,0.0
1752860139157,112.0,-9.0,-154.0,1.0,-1.0,-10.0,2.4,-4.8,-1.4,0.22,0.81,0.53,0.06,0.0,0.0,0.0
1752860139305,107.0,-15.0,-155.0,1.0,3.0,-10.0,3.3,-1.4,-1.6,0.24,0.79,0.56,0.05,0.0,0.0,0.0
1752860139647,162.0,-16.0,-158.0,-5.0,4.0,-10.0,0.0,0.0,0.0,0.21,0.96,0.17,-0.1,0.0,0.0,0.0
1752860139685,170.0,-20.0,-158.0,-5.0,3.0,-10.0,-1.5,-0.1,-1.5,0.2,0.96,0.08,-0.16,0.0,0.0,0.0
1752860140422,183.0,-10.0,-152.0,-5.0,4.0,-14.0,-3.2,-0.4,-4.0,0.23,0.97,-0.02,-0.09,0.0,0.0,0.0
1752860140464,164.0,-3.0,-153.0,-2.0,5.0,-12.0,-1.6,-0.0,-2.8,0.24,0.97,0.11,-0.01,0.0,0.0,0.0
1752860140722,150.0,-2.0,-151.0,1.0,1.0,-9.0,3.5,-2.9,-0.9,0.24,0.94,0.22,0.04,0.0,0.0,0.0
1752860140868,121.0,-14.0,-153.0,-1.0,3.0,-11.0,1.6,-1.6,-2.1,0.29,0.8,0.53,-0.0,0.0,0.0,0.0
1752860141002,149.0,-7.0,-155.0,-2.0,3.0,-12.0,-1.0,-0.7,-2.6,0.25,0.86,0.45,0.01,0.0,0.0,0.0
1752860141148,183.0,-13.0,-160.0,-4.0,3.0,-13.0,-0.8,-0.3,-3.6,0.16,0.98,-0.02,-0.12,0.0,0.0,0.0
1752860141194,190.0,-19.0,-162.0,-4.0,4.0,-12.0,0.1,1.4,-3.2,0.13,0.97,-0.09,-0.18,0.0,0.0,0.0
1752860141228,197.0,-26.0,-164.0,-4.0,5.0,-11.0,0.7,2.8,-2.8,0.1,0.95,-0.14,-0.25,0.0,0.0,0.0
1752860141267,204.0,-37.0,-163.0,-5.0,5.0,-10.0,1.3,3.1,-2.8,0.06,0.93,-0.19,-0.32,0.0,0.0,0.0
1752860141308,173.0,-45.0,-161.0,-5.0,6.0,-9.0,2.5,3.7,-2.4,0.03,0.89,-0.22,-0.39,0.0,0.0,0.0
1752860141554,186.0,-66.0,-132.0,0.0,8.0,-2.0,9.1,3.2,-0.3,0.0,0.85,-0.25,-0.46,0.0,0.0,0.0
1752860141610,174.0,-61.0,-106.0,1.0,7.0,-3.0,9.3,1.8,-1.0,0.04,0.68,-0.32,-0.66,0.0,0.0,0.0
1752860141752,138.0,-37.0,-128.0,1.0,5.0,-12.0,6.2,-1.4,-7.4,0.08,0.69,-0.34,-0.64,0.0,0.0,0.0
1752860141791,125.0,-30.0,-138.0,-2.0,4.0,-15.0,0.5,-1.5,-9.7,0.2,0.84,-0.33,-0.38,0.0,0.0,0.0
1752860141830,212.0,-24.0,-146.0,-6.0,4.0,-17.0,-3.1,-0.7,-8.7,0.2,0.9,-0.26,-0.28,0.0,0.0,0.0
1752860141881,194.0,-15.0,-154.0,-7.0,3.0,-15.0,-4.4,-1.0,-6.3,0.2,0.95,-0.15,-0.19,0.0,0.0,0.0
1752860141915,179.0,-10.0,-156.0,-5.0,2.0,-12.0,-3.4,-1.9,-3.5,0.2,0.97,-0.03,-0.1,0.0,0.0,0.0
1752860142166,141.0,-9.0,-156.0,-1.0,0.0,-12.0,2.5,-4.3,-1.4,0.21,0.97,0.09,-0.05,0.0,0.0,0.0
1752860142315,132.0,-14.0,-155.0,-1.0,2.0,-11.0,0.7,-2.1,-2.1,0.24,0.88,0.4,-0.03,0.0,0.0,0.0
1752860142351,147.0,-13.0,-157.0,-2.0,2.0,-11.0,-0.3,-2.0,-2.7,0.22,0.93,0.28,-0.05,0.0,0.0,0.0
1752860142500,156.0,-13.0,-158.0,-3.0,3.0,-12.0,-1.8,0.8,-2.6,0.21,0.95,0.22,-0.07,0.0,0.0,0.0
1752860142547,184.0,-27.0,-160.0,-6.0,4.0,-11.0,-0.8,0.5,-2.7,0.15,0.96,-0.02,-0.22,0.0,0.0,0.0
1752860142594,191.0,-34.0,-160.0,-5.0,4.0,-10.0,0.5,1.2,-2.4,0.13,0.94,-0.09,-0.31,0.0,0.0,0.0
1752860142629,150.0,-41.0,-158.0,-5.0,5.0,-9.0,1.9,1.7,-1.7,0.1,0.91,-0.13,-0.38,0.0,0.0,0.0
1752860142683,165.0,-51.0,-154.0,-5.0,5.0,-7.0,3.1,2.0,-1.6,0.07,0.88,-0.17,-0.44,0.0,0.0,0.0
1752860142712,173.0,-58.0,-149.0,-4.0,6.0,-6.0,4.1,2.9,-2.1,0.04,0.84,-0.2,-0.51,0.0,0.0,0.0
1752860142861,182.0,-69.0,-116.0,0.0,8.0,-1.0,9.9,5.0,0.1,0.01,0.79,-0.22,-0.56,0.0,0.0,0.0
1752860143015,163.0,-55.0,-117.0,1.0,6.0,-6.0,8.7,0.9,-2.8,0.09,0.73,-0.32,-0.6,0.0,0.0,0.0
1752860143148,209.0,-27.0,-149.0,-5.0,5.0,-16.0,-1.9,0.9,-8.3,0.13,0.76,-0.33,-0.54,0.0,0.0,0.0
1752860143515,115.0,-16.0,-156.0,1.0,1.0,-9.0,4.1,-3.1,-0.6,0.25,0.82,0.52,-0.01,0.0,0.0,0.0
1752860143548,113.0,-17.0,-157.0,1.0,1.0,-11.0,4.1,-2.4,-2.2,0.25,0.81,0.54,-0.02,0.0,0.0,0.0
1752860143689,128.0,-11.0,-157.0,-1.0,2.0,-11.0,0.0,0.0,0.0,0.22,0.88,0.42,-0.0,0.0,0.0,0.0
1752860143731,137.0,-9.0,-157.0,-1.0,2.0,-11.0,0.5,-1.9,-1.9,0.21,0.91,0.36,-0.0,0.0,0.0,0.0
1752860143782,149.0,-9.0,-159.0,-2.0,4.0,-12.0,-0.8,0.7,-3.1,0.2,0.94,0.28,-0.02,0.0,0.0,0.0
1752860143815,158.0,-10.0,-161.0,-3.0,3.0,-12.0,-1.5,0.1,-3.1,0.18,0.96,0.2,-0.05,0.0,0.0,0.0
1752860143966,188.0,-26.0,-165.0,-5.0,4.0,-12.0,0.2,2.0,-3.4,0.16,0.97,0.13,-0.08,0.0,0.0,0.0
1752860144017,194.0,-33.0,-165.0,-5.0,5.0,-11.0,1.1,3.3,-3.1,0.08,0.94,-0.12,-0.3,0.0,0.0,0.0
1752860144047,167.0,-43.0,-163.0,-5.0,6.0,-9.0,2.3,3.9,-2.3,0.05,0.91,-0.16,-0.37,0.0,0.0,0.0
1752860144100,174.0,-51.0,-158.0,-5.0,5.0,-7.0,3.2,2.3,-1.6,0.02,0.86,-0.21,-0.46,0.0,0.0,0.0
1752860144134,179.0,-60.0,-149.0,-4.0,4.0,-5.0,4.2,1.5,-1.5,0.01,0.82,-0.23,-0.52,0.0,0.0,0.0
1752860144184,183.0,-65.0,-139.0,-4.0,4.0,-4.0,5.3,1.7,-1.2,-0.01,0.78,-0.25,-0.57,0.0,0.0,0.0
1752860144222,185.0,-69.0,-127.0,-2.0,6.0,-3.0,6.7,3.0,-0.8,-0.03,0.74,-0.26,-0.62,0.0,0.0,0.0
1752860144365,177.0,-64.0,-102.0,-1.0,7.0,-1.0,8.1,2.3,-0.5,-0.03,0.71,-0.27,-0.65,0.0,0.0,0.0
1752860144405,170.0,-58.0,-105.0,1.0,7.0,-2.0,8.5,1.4,-0.3,0.06,0.68,-0.33,-0.66,0.0,0.0,0.0
1752860144458,159.0,-50.0,-111.0,1.0,6.0,-4.0,8.4,-0.4,-2.3,0.1,0.69,-0.36,-0.62,0.0,0.0,0.0
1752860144497,149.0,-43.0,-118.0,1.0,5.0,-7.0,7.6,-1.1,-4.3,0.15,0.72,-0.39,-0.55,0.0,0.0,0.0
1752860144536,140.0,-36.0,-127.0,1.0,5.0,-11.0,6.4,-1.5,-5.8,0.17,0.76,-0.4,-0.48,0.0,0.0,0.0
1752860144574,129.0,-29.0,-140.0,-1.0,5.0,-14.0,3.3,0.1,-7.3,0.18,0.82,-0.38,-0.39,0.0,0.0,0.0
1752860144616,218.0,-22.0,-150.0,-5.0,6.0,-16.0,-1.3,1.7,-8.3,0.17,0.88,-0.33,-0.29,0.0,0.0,0.0
1752860144760,173.0,-1.0,-158.0,-1.0,-1.0,-12.0,-1.1,-4.8,-2.8,0.16,0.94,-0.24,-0.2,0.0,0.0,0.0
1752860145373,184.0,-18.0,-164.0,-4.0,3.0,-11.0,-1.0,0.9,-2.3,0.14,0.98,-0.02,-0.15,0.0,0.0,0.0
1752860145405,189.0,-23.0,-165.0,-5.0,4.0,-11.0,-0.7,1.8,-2.9,0.11,0.97,-0.08,-0.21,0.0,0.0,0.0
1752860145453,195.0,-30.0,-166.0,-5.0,5.0,-11.0,-0.1,3.3,-2.6,0.08,0.95,-0.12,-0.27,0.0,0.0,0.0
1752860145490,200.0,-37.0,-166.0,-6.0,6.0,-9.0,0.6,3.6,-1.9,0.05,0.93,-0.16,-0.33,0.0,0.0,0.0
1752860145523,175.0,-47.0,-163.0,-6.0,5.0,-8.0,1.2,3.4,-1.9,0.02,0.9,-0.19,-0.4,0.0,0.0,0.0
1752860145570,181.0,-55.0,-159.0,-6.0,5.0,-6.0,2.5,2.9,-1.1,0.0,0.86,-0.21,-0.47,0.0,0.0,0.0
1752860145724,185.0,-72.0,-113.0,-2.0,6.0,-1.0,9.1,2.3,-1.2,-0.02,0.82,-0.23,-0.53,0.0,0.0,0.0
1752860145757,183.0,-70.0,-102.0,-0.0,6.0,-1.0,9.0,2.2,-0.7,-0.02,0.68,-0.26,-0.68,0.0,0.0,0.0
1752860145908,163.0,-55.0,-116.0,-2.0,6.0,-6.0,5.6,0.8,-3.0,0.0,0.67,-0.28,-0.69,0.0,0.0,0.0
1752860145959,156.0,-50.0,-126.0,-3.0,6.0,-8.0,4.5,1.3,-3.8,0.11,0.77,-0.32,-0.55,0.0,0.0,0.0
1752860145993,147.0,-43.0,-137.0,-4.0,7.0,-10.0,1.9,1.8,-5.0,0.13,0.81,-0.31,-0.48,0.0,0.0,0.0
1752860146040,138.0,-36.0,-145.0,-5.0,6.0,-12.0,0.2,1.9,-4.7,0.15,0.87,-0.26,-0.38,0.0,0.0,0.0
1752860146075,204.0,-29.0,-152.0,-5.0,5.0,-12.0,-0.7,1.4,-4.5,0.16,0.91,-0.21,-0.31,0.0,0.0,0.0
1752860146117,195.0,-23.0,-155.0,-5.0,4.0,-11.0,-1.1,0.0,-3.2,0.17,0.94,-0.14,-0.25,0.0,0.0,0.0
1752860146263,161.0,-10.0,-156.0,-3.0,-1.0,-13.0,-1.4,-4.5,-3.7,0.18,0.96,-0.06,-0.19,0.0,0.0,0.0
1752860146305,152.0,-8.0,-155.0,-1.0,2.0,-10.0,1.0,-1.2,-0.2,0.22,0.95,0.22,-0.03,0.0,0.0,0.0
1752860146345,145.0,-7.0,-155.0,0.0,1.0,-11.0,1.0,-4.5,-3.1,0.23,0.93,0.29,0.01,0.0,0.0,0.0
1752860146382,139.0,-7.0,-154.0,-0.0,0.0,-12.0,1.2,-3.4,-2.8,0.23,0.91,0.34,0.02,0.0,0.0,0.0
1752860146424,135.0,-8.0,-154.0,1.0,1.0,-11.0,2.1,-2.9,-2.0,0.23,0.9,0.37,0.02,0.0,0.0,0.0
1752860146472,133.0,-8.0,-154.0,1.0,0.0,-11.0,2.4,-3.6,-1.8,0.24,0.89,0.39,0.02,0.0,0.0,0.0
1752860146521,132.0,-9.0,-154.0,1.0,1.0,-10.0,2.8,-3.5,-1.7,0.24,0.89,0.4,0.02,0.0,0.0,0.0
1752860146675,144.0,-7.0,-157.0,-1.0,2.0,-10.0,-0.0,-1.1,-1.2,0.21,0.93,0.32,0.0,0.0,0.0,0.0
1752860146819,169.0,-14.0,-162.0,-4.0,3.0,-11.0,-1.7,-0.3,-1.8,0.17,0.98,0.11,-0.1,0.0,0.0,0.0
1752860147070,171.0,-50.0,-161.0,-6.0,5.0,-7.0,1.6,2.3,-0.8,0.15,0.98,0.05,-0.14,0.0,0.0,0.0
1752860147108,176.0,-57.0,-156.0,-5.0,5.0,-4.0,3.7,2.3,0.5,0.02,0.84,-0.2,-0.5,0.0,0.0,0.0
1752860147158,181.0,-65.0,-145.0,-3.0,6.0,-3.0,6.9,4.2,0.1,-0.0,0.8,-0.22,-0.56,0.0,0.0,0.0
1752860147208,181.0,-69.0,-126.0,1.0,9.0,-3.0,11.3,6.5,-0.7,-0.01,0.75,-0.23,-0.62,0.0,0.0,0.0
1752860147255,178.0,-67.0,-112.0,4.0,11.0,-2.0,14.1,6.6,-1.9,0.01,0.71,-0.27,-0.65,0.0,0.0,0.0
1752860147290,168.0,-57.0,-108.0,7.0,8.0,-6.0,14.8,2.6,-4.1,0.05,0.69,-0.32,-0.65,0.0,0.0,0.0
1752860147425,109.0,-23.0,-138.0,-4.0,0.0,-18.0,-1.3,-4.7,-11.3,0.12,0.7,-0.36,-0.61,0.0,0.0,0.0
1752860147475,204.0,-11.0,-151.0,-8.0,1.0,-19.0,-6.9,-3.2,-10.6,0.23,0.93,-0.24,-0.18,0.0,0.0,0.0
1752860147522,186.0,-3.0,-156.0,-7.0,4.0,-14.0,-5.1,1.3,-3.6,0.21,0.97,-0.09,-0.06,0.0,0.0,0.0
1752860147559,168.0,2.0,-158.0,-3.0,3.0,-13.0,-3.2,-0.8,-3.9,0.18,0.98,0.1,0.04,0.0,0.0,0.0
1752860147605,150.0,3.0,-158.0,-2.0,1.0,-13.0,-2.1,-2.5,-3.3,0.18,0.96,0.23,0.07,0.0,0.0,0.0
1752860147750,126.0,-4.0,-158.0,2.0,-0.0,-10.0,2.8,-5.1,-1.7,0.19,0.88,0.44,0.06,0.0,0.0,0.0
1752860147792,125.0,-5.0,-157.0,2.0,-1.0,-11.0,3.0,-4.4,-1.6,0.2,0.87,0.45,0.05,0.0,0.0,0.0
1752860147826,126.0,-6.0,-157.0,1.0,0.0,-11.0,2.5,-3.5,-1.0,0.2,0.87,0.44,0.05,0.0,0.0,0.0
1752860147876,130.0,-6.0,-157.0,1.0,0.0,-12.0,1.7,-3.4,-2.6,0.2,0.88,0.42,0.04,0.0,0.0,0.0
1752860148010,151.0,-8.0,-159.0,-2.0,3.0,-12.0,-0.6,-0.7,-2.7,0.2,0.9,0.39,0.03,0.0,0.0,0.0
1752860148060,160.0,-10.0,-161.0,-3.0,3.0,-12.0,-1.4,0.7,-2.6,0.18,0.97,0.17,-0.06,0.0,0.0,0.0
1752860148194,193.0,-26.0,-159.0,-4.0,5.0,-10.0,0.4,1.2,-1.7,0.17,0.98,0.09,-0.11,0.0,0.0,0.0
1752860148235,203.0,-34.0,-154.0,-4.0,5.0,-8.0,2.2,1.0,-1.2,0.13,0.92,-0.17,-0.32,0.0,0.0,0.0
1752860148281,147.0,-40.0,-149.0,-3.0,7.0,-7.0,3.7,2.5,-1.4,0.12,0.89,-0.23,-0.38,0.0,0.0,0.0
1752860148460,159.0,-50.0,-122.0,1.0,8.0,-3.0,8.4,2.0,-0.1,0.1,0.8,-0.3,-0.5,0.0,0.0,0.0
1752860148504,155.0,-47.0,-120.0,3.0,8.0,-3.0,9.8,2.4,0.0,0.12,0.74,-0.35,-0.56,0.0,0.0,0.0
1752860148557,149.0,-44.0,-121.0,3.0,8.0,-4.0,10.0,1.5,-0.4,0.15,0.74,-0.37,-0.54,0.0,0.0,0.0
1752860148597,140.0,-39.0,-124.0,4.0,6.0,-6.0,10.7,-0.5,-2.9,0.18,0.76,-0.37,-0.5,0.0,0.0,0.0
1752860148636,126.0,-32.0,-130.0,4.0,5.0,-11.0,9.3,-0.9,-5.0,0.21,0.79,-0.36,-0.44,0.0,0.0,0.0
1752860148671,111.0,-25.0,-138.0,-0.0,4.0,-16.0,3.6,-1.6,-9.3,0.23,0.84,-0.33,-0.36,0.0,0.0,0.0
1752860149415,163.0,-2.0,-148.0,0.0,6.0,-9.0,0.5,0.8,-1.0,0.28,0.95,0.14,0.02,0.0,0.0,0.0
1752860149465,173.0,-4.0,-149.0,1.0,5.0,-10.0,-1.9,0.7,-0.3,0.27,0.96,0.08,-0.01,0.0,0.0,0.0
1752860149502,180.0,-7.0,-150.0,-1.0,6.0,-9.0,0.6,1.1,-0.7,0.26,0.96,0.0,-0.07,0.0,0.0,0.0
1752860149543,186.0,-11.0,-150.0,-1.0,6.0,-9.0,0.7,0.8,-0.5,0.25,0.96,-0.05,-0.11,0.0,0.0,0.0
1752860149583,192.0,-15.0,-150.0,-1.0,6.0,-8.0,1.3,1.2,0.1,0.24,0.96,-0.09,-0.15,0.0,0.0,0.0
1752860149627,196.0,-19.0,-150.0,-2.0,6.0,-8.0,1.4,1.6,-0.0,0.22,0.95,-0.13,-0.19,0.0,0.0,0.0
1752860149771,207.0,-32.0,-147.0,-4.0,6.0,-6.0,1.7,1.7,1.1,0.18,0.9,-0.22,-0.33,0.0,0.0,0.0
1752860150022,143.0,-43.0,-137.0,-5.0,6.0,-4.0,1.6,0.6,0.5,0.17,0.89,-0.23,-0.36,0.0,0.0,0.0
1752860150072,143.0,-43.0,-135.0,-5.0,5.0,-5.0,1.3,0.3,0.3,0.16,0.83,-0.28,-0.47,0.0,0.0,0.0
1752860150208,142.0,-43.0,-133.0,-5.0,5.0,-4.0,0.0,0.0,0.0,0.16,0.82,-0.28,-0.47,0.0,0.0,0.0
1752860150576,140.0,-43.0,-135.0,-6.0,5.0,-5.0,0.3,0.2,0.2,0.17,0.83,-0.26,-0.46,0.0,0.0,0.0
1752860150628,140.0,-43.0,-136.0,-6.0,5.0,-5.0,0.3,0.4,0.0,0.17,0.83,-0.26,-0.46,0.0,0.0,0.0
1752860150766,141.0,-43.0,-136.0,-6.0,6.0,-5.0,0.4,0.6,-0.0,0.16,0.83,-0.26,-0.46,0.0,0.0,0.0
1752860151018,141.0,-43.0,-136.0,-6.0,5.0,-5.0,0.0,-0.3,-0.0,0.16,0.84,-0.26,-0.46,0.0,0.0,0.0
1752860151160,132.0,-40.0,-135.0,-6.0,5.0,-5.0,1.0,-0.4,0.2,0.2,0.85,-0.24,-0.43,0.0,0.0,0.0
1752860151194,123.0,-38.0,-135.0,-5.0,5.0,-6.0,1.0,-0.6,-0.3,0.22,0.86,-0.21,-0.41,0.0,0.0,0.0
1752860151245,121.0,-37.0,-136.0,-4.0,5.0,-5.0,1.5,-0.4,0.2,0.23,0.86,-0.21,-0.41,0.0,0.0,0.0
1752860151279,119.0,-36.0,-136.0,-4.0,5.0,-5.0,2.1,-0.1,0.6,0.23,0.87,-0.2,-0.4,0.0,0.0,0.0
1752860151330,116.0,-35.0,-137.0,-5.0,5.0,-6.0,0.8,-0.5,-0.3,0.23,0.87,-0.2,-0.38,0.0,0.0,0.0
1752860151373,113.0,-33.0,-139.0,-4.0,6.0,-6.0,1.1,0.3,0.4,0.24,0.88,-0.19,-0.36,0.0,0.0,0.0
1752860151422,107.0,-30.0,-140.0,-3.0,7.0,-6.0,1.3,1.3,0.5,0.24,0.89,-0.18,-0.33,0.0,0.0,0.0
1752860151465,99.0,-27.0,-141.0,-3.0,7.0,-7.0,1.2,1.3,0.1,0.25,0.9,-0.17,-0.3,0.0,0.0,0.0
1752860151507,201.0,-23.0,-141.0,-3.0,7.0,-9.0,0.0,0.6,-1.4,0.27,0.91,-0.17,-0.27,0.0,0.0,0.0
1752860151550,201.0,-19.0,-141.0,-4.0,6.0,-8.0,-0.7,-0.2,-0.6,0.29,0.92,-0.17,-0.23,0.0,0.0,0.0
1752860151584,201.0,-13.0,-141.0,-3.0,8.0,-8.0,0.0,0.0,0.0,0.3,0.92,-0.17,-0.19,0.0,0.0,0.0
1752860151634,201.0,-8.0,-141.0,-2.0,8.0,-7.0,-1.0,1.9,0.6,0.31,0.93,-0.17,-0.14,0.0,0.0,0.0
1752860151777,204.0,7.0,-139.0,-0.0,8.0,-7.0,-1.6,1.2,0.4,0.35,0.92,-0.19,-0.01,0.0,0.0,0.0
1752860151817,205.0,8.0,-138.0,0.0,7.0,-7.0,-1.5,0.6,0.0,0.36,0.91,-0.2,-0.0,0.0,0.0,0.0
1752860151871,207.0,10.0,-137.0,0.0,6.0,-7.0,-1.3,-0.3,-0.3,0.37,0.9,-0.21,0.0,0.0,0.0,0.0
1752860151913,208.0,10.0,-137.0,1.0,6.0,-7.0,-1.0,-0.8,-0.4,0.38,0.9,-0.22,0.0,0.0,0.0,0.0
1752860151956,209.0,9.0,-136.0,1.0,6.0,-8.0,-0.7,-1.0,-0.6,0.38,0.9,-0.23,-0.01,0.0,0.0,0.0
1752860151990,209.0,8.0,-136.0,1.0,6.0,-8.0,-0.2,-0.9,-0.6,0.38,0.9,-0.23,-0.02,0.0,0.0,0.0
1752860152138,209.0,7.0,-137.0,1.0,6.0,-8.0,0.2,-0.6,-0.6,0.37,0.9,-0.24,-0.03,0.0,0.0,0.0
1752860152193,211.0,1.0,-140.0,0.0,6.0,-8.0,-0.3,-0.4,-0.5,0.34,0.91,-0.25,-0.08,0.0,0.0,0.0
1752860152339,215.0,-3.0,-143.0,-1.0,6.0,-8.0,-0.6,0.5,0.1,0.3,0.9,-0.28,-0.12,0.0,0.0,0.0
1752860152390,217.0,-5.0,-143.0,-1.0,7.0,-7.0,-0.4,0.7,0.3,0.29,0.9,-0.29,-0.14,0.0,0.0,0.0
1752860152439,219.0,-6.0,-143.0,-1.0,6.0,-7.0,-0.4,0.5,0.2,0.28,0.89,-0.31,-0.16,0.0,0.0,0.0
1752860152594,227.0,-11.0,-140.0,0.0,5.0,-11.0,0.3,0.6,-0.2,0.27,0.86,-0.37,-0.22,0.0,0.0,0.0
1752860152637,227.0,-11.0,-139.0,-1.0,6.0,-6.0,0.7,-0.5,1.6,0.28,0.86,-0.37,-0.23,0.0,0.0,0.0
1752860152682,227.0,-11.0,-141.0,-2.0,6.0,-6.0,0.1,0.1,1.8,0.26,0.86,-0.37,-0.23,0.0,0.0,0.0
1752860152928,227.0,-13.0,-141.0,-2.0,6.0,-7.0,-0.1,-0.8,-0.4,0.25,0.86,-0.37,-0.23,0.0,0.0,0.0
1752860152975,223.0,-19.0,-144.0,-4.0,5.0,-8.0,-0.3,-0.4,-0.7,0.21,0.87,-0.35,-0.27,0.0,0.0,0.0
1752860153016,221.0,-20.0,-144.0,-4.0,5.0,-8.0,-0.4,-0.3,-0.7,0.21,0.88,-0.33,-0.28,0.0,0.0,0.0
1752860153071,218.0,-21.0,-145.0,-4.0,5.0,-8.0,-0.2,-0.5,0.1,0.21,0.89,-0.31,-0.28,0.0,0.0,0.0
1752860153099,215.0,-22.0,-146.0,-4.0,5.0,-7.0,-0.0,-0.3,0.5,0.21,0.89,-0.28,-0.27,0.0,0.0,0.0
1752860153140,212.0,-23.0,-147.0,-4.0,5.0,-7.0,0.2,0.1,0.5,0.2,0.9,-0.26,-0.27,0.0,0.0,0.0
1752860153181,209.0,-24.0,-148.0,-4.0,5.0,-8.0,0.2,0.4,0.1,0.19,0.91,-0.24,-0.27,0.0,0.0,0.0
1752860153231,207.0,-24.0,-149.0,-4.0,5.0,-8.0,0.1,0.3,-0.2,0.19,0.92,-0.22,-0.27,0.0,0.0,0.0
1752860153275,204.0,-25.0,-151.0,-4.0,4.0,-8.0,0.2,0.2,0.1,0.18,0.92,-0.2,-0.27,0.0,0.0,0.0
1752860153431,195.0,-26.0,-154.0,-4.0,4.0,-7.0,0.1,0.7,0.6,0.18,0.93,-0.17,-0.26,0.0,0.0,0.0
1752860154147,180.0,-26.0,-158.0,-4.0,3.0,-9.0,0.2,0.3,-0.8,0.18,0.96,0.0,-0.23,0.0,0.0,0.0
1752860154230,177.0,-28.0,-163.0,-4.0,3.0,-8.0,0.6,0.5,0.0,0.14,0.96,0.02,-0.24,0.0,0.0,0.0
1752860154288,177.0,-28.0,-164.0,-4.0,3.0,-8.0,0.7,0.4,0.2,0.13,0.96,0.03,-0.24,0.0,0.0,0.0
1752860154498,174.0,-28.0,-167.0,-4.0,3.0,-9.0,0.7,0.8,-0.6,0.11,0.96,0.05,-0.24,0.0,0.0,0.0
1752860154582,174.0,-27.0,-166.0,-4.0,2.0,-8.0,0.0,0.0,0.0,0.12,0.96,0.05,-0.23,0.0,0.0,0.0
1752860154626,173.0,-27.0,-165.0,-4.0,2.0,-9.0,0.0,0.0,0.0,0.13,0.96,0.05,-0.23,0.0,0.0,0.0
1752860154773,172.0,-26.0,-161.0,-4.0,3.0,-9.0,0.0,0.0,0.0,0.16,0.96,0.06,-0.22,0.0,0.0,0.0
1752860154819,171.0,-26.0,-160.0,-4.0,3.0,-9.0,0.0,0.0,0.0,0.17,0.96,0.07,-0.22,0.0,0.0,0.0
1752860154871,170.0,-26.0,-158.0,-4.0,3.0,-8.0,0.5,-0.3,-0.1,0.19,0.96,0.08,-0.21,0.0,0.0,0.0
1752860155013,164.0,-25.0,-156.0,-4.0,4.0,-8.0,0.2,0.1,0.7,0.2,0.95,0.09,-0.21,0.0,0.0,0.0
1752860155051,162.0,-25.0,-156.0,-4.0,4.0,-7.0,0.0,0.2,1.3,0.22,0.95,0.15,-0.19,0.0,0.0,0.0
1752860155091,160.0,-25.0,-156.0,-4.0,4.0,-7.0,-0.1,0.5,1.1,0.23,0.94,0.16,-0.18,0.0,0.0,0.0
1752860155138,158.0,-25.0,-156.0,-4.0,4.0,-7.0,-0.3,0.8,0.6,0.23,0.94,0.18,-0.18,0.0,0.0,0.0
1752860155291,152.0,-26.0,-155.0,-5.0,4.0,-8.0,-0.4,0.5,0.3,0.24,0.93,0.23,-0.17,0.0,0.0,0.0
1752860155342,150.0,-26.0,-155.0,-5.0,4.0,-8.0,-0.3,-0.0,0.2,0.25,0.92,0.24,-0.17,0.0,0.0,0.0
1752860155495,149.0,-26.0,-154.0,-5.0,4.0,-8.0,-0.3,0.1,0.3,0.26,0.92,0.25,-0.17,0.0,0.0,0.0
1752860155735,150.0,-29.0,-152.0,-5.0,4.0,-8.0,-0.0,0.2,0.0,0.27,0.91,0.26,-0.18,0.0,0.0,0.0
1752860155990,153.0,-30.0,-150.0,-5.0,4.0,-7.0,0.2,-0.0,0.1,0.28,0.91,0.23,-0.2,0.0,0.0,0.0
