timestamp,heading,roll,pitch,acc_x,acc_y,acc_z,lin_acc_x,lin_acc_y,lin_acc_z,quat_w,quat_x,quat_y,quat_z,mag_x,mag_y,mag_z
1752860454248,173.0,-38.0,-136.0,-6.0,6.0,-6.0,0.1,0.3,0.1,0.03,0.7,-0.55,-0.46,0.0,0.0,0.0
1752860454249,173.0,-38.0,-136.0,-6.0,6.0,-6.0,-0.1,0.3,0.0,0.03,0.69,-0.55,-0.46,0.0,0.0,0.0
1752860454249,173.0,-37.0,-136.0,-6.0,6.0,-6.0,-0.1,0.2,0.0,0.03,0.69,-0.55,-0.46,0.0,0.0,0.0
1752860454249,172.0,-37.0,-136.0,-6.0,5.0,-6.0,-0.1,-0.1,0.0,0.03,0.69,-0.55,-0.46,0.0,0.0,0.0
1752860454249,168.0,-36.0,-135.0,-6.0,5.0,-6.0,-0.1,-0.2,-0.0,0.05,0.7,-0.55,-0.46,0.0,0.0,0.0
1752860454386,169.0,-36.0,-135.0,-6.0,6.0,-6.0,0.1,0.2,-0.0,0.04,0.7,-0.55,-0.46,0.0,0.0,0.0
1752860455126,169.0,-37.0,-135.0,-6.0,5.0,-6.0,-0.1,-0.1,-0.0,0.04,0.7,-0.55,-0.46,0.0,0.0,0.0
1752860455165,169.0,-37.0,-135.0,-6.0,6.0,-6.0,0.0,0.0,0.0,0.04,0.7,-0.55,-0.47,0.0,0.0,0.0
1752860455212,169.0,-37.0,-135.0,-6.0,6.0,-5.0,-0.0,0.1,0.0,0.04,0.7,-0.55,-0.46,0.0,0.0,0.0
1752860455262,169.0,-37.0,-135.0,-6.0,5.0,-5.0,-0.0,-0.1,0.1,0.04,0.7,-0.54,-0.46,0.0,0.0,0.0
1752860455306,169.0,-37.0,-135.0,-6.0,6.0,-6.0,0.0,0.0,0.0,0.04,0.7,-0.54,-0.46,0.0,0.0,0.0
1752860455453,172.0,-38.0,-135.0,-6.0,6.0,-6.0,0.0,0.0,0.0,0.04,0.7,-0.54,-0.46,0.0,0.0,0.0
1752860455710,172.0,-38.0,-135.0,-6.0,6.0,-5.0,-0.1,-0.2,0.0,0.03,0.7,-0.54,-0.47,0.0,0.0,0.0
1752860456061,177.0,-41.0,-132.0,-6.0,6.0,-5.0,0.3,0.1,-0.0,0.03,0.68,-0.54,-0.49,0.0,0.0,0.0
1752860456404,177.0,-40.0,-131.0,-7.0,5.0,-5.0,-0.3,-0.4,-0.0,0.01,0.67,-0.55,-0.5,0.0,0.0,0.0
1752860456762,180.0,-42.0,-131.0,-6.0,6.0,-5.0,0.1,0.3,-0.5,0.01,0.66,-0.56,-0.5,0.0,0.0,0.0
1752860456798,182.0,-43.0,-130.0,-7.0,6.0,-5.0,-0.1,-0.1,-0.6,-0.01,0.65,-0.56,-0.51,0.0,0.0,0.0
1752860456839,181.0,-43.0,-130.0,-7.0,5.0,-4.0,0.1,-0.6,0.2,-0.01,0.65,-0.55,-0.51,0.0,0.0,0.0
1752860456879,181.0,-43.0,-130.0,-7.0,5.0,-5.0,0.0,-0.3,0.1,-0.0,0.66,-0.55,-0.51,0.0,0.0,0.0
1752860456926,180.0,-42.0,-130.0,-7.0,5.0,-5.0,-0.1,-0.1,-0.3,-0.0,0.66,-0.55,-0.51,0.0,0.0,0.0
1752860456989,180.0,-42.0,-130.0,-7.0,5.0,-5.0,0.0,-0.2,-0.0,0.0,0.66,-0.55,-0.51,0.0,0.0,0.0
1752860457137,179.0,-42.0,-130.0,-7.0,5.0,-5.0,-0.1,-0.2,0.0,0.0,0.66,-0.55,-0.51,0.0,0.0,0.0
1752860473195,340.0,-34.0,171.0,-7.0,7.0,-7.0,-0.9,8.5,0.6,0.29,-0.17,0.94,-0.02,0.0,0.0,0.0
1752860473234,343.0,-41.0,169.0,-6.0,6.0,-6.0,0.8,7.7,0.8,0.35,-0.14,0.93,-0.02,0.0,0.0,0.0
1752860473381,0.0,-66.0,166.0,-4.0,6.0,-3.0,5.0,6.4,1.1,0.41,-0.13,0.9,-0.02,0.0,0.0,0.0
1752860473431,359.0,-71.0,164.0,-3.0,6.0,-2.0,6.3,6.8,0.5,0.59,-0.08,0.81,0.0,0.0,0.0,0.0
1752860473475,358.0,-77.0,162.0,-3.0,7.0,-2.0,6.7,7.3,-0.0,0.62,-0.07,0.78,0.01,0.0,0.0,0.0
1752860473520,356.0,-80.0,167.0,-2.0,7.0,-1.0,7.3,6.8,0.3,0.64,-0.06,0.76,0.02,0.0,0.0,0.0
1752860473981,346.0,-60.0,-157.0,1.0,8.0,-8.0,9.0,6.8,-2.8,0.58,0.08,0.81,0.07,0.0,0.0,0.0
1752860474027,346.0,-54.0,-164.0,-2.0,6.0,-10.0,5.6,4.8,-3.6,0.46,0.07,0.88,0.06,0.0,0.0,0.0
1752860474173,347.0,-15.0,-179.0,-5.0,3.0,-16.0,-2.9,2.4,-5.0,0.39,0.04,0.92,0.05,0.0,0.0,0.0
1752860474215,340.0,-5.0,-178.0,-2.0,2.0,-12.0,-1.8,1.6,-1.4,0.04,-0.17,0.98,0.03,0.0,0.0,0.0
1752860474667,334.0,-25.0,171.0,-7.0,5.0,-9.0,-2.3,6.8,0.2,0.23,-0.22,0.95,-0.02,0.0,0.0,0.0
1752860474808,7.0,-55.0,165.0,-3.0,8.0,-4.0,5.0,9.6,0.9,0.3,-0.18,0.94,-0.03,0.0,0.0,0.0
1752860474846,5.0,-62.0,164.0,-2.0,8.0,-3.0,6.6,9.5,1.3,0.51,-0.09,0.85,-0.02,0.0,0.0,0.0
1752860474890,2.0,-66.0,165.0,-2.0,8.0,-3.0,7.5,9.2,1.1,0.55,-0.08,0.83,-0.01,0.0,0.0,0.0
1752860475035,360.0,-69.0,168.0,-1.0,7.0,-3.0,8.0,6.6,0.6,0.57,-0.07,0.82,-0.0,0.0,0.0,0.0
1752860475079,351.0,-65.0,-174.0,-1.0,7.0,-4.0,7.2,6.2,0.2,0.54,-0.03,0.84,0.04,0.0,0.0,0.0
1752860475124,349.0,-59.0,-173.0,-2.0,7.0,-5.0,6.3,6.2,0.1,0.5,-0.02,0.86,0.05,0.0,0.0,0.0
1752860475167,347.0,-53.0,-174.0,-2.0,7.0,-6.0,5.1,5.8,0.0,0.44,-0.03,0.89,0.05,0.0,0.0,0.0
1752860475208,354.0,-44.0,-176.0,-4.0,6.0,-8.0,2.7,6.0,-0.7,0.39,-0.04,0.92,0.05,0.0,0.0,0.0
1752860475247,351.0,-35.0,-178.0,-5.0,7.0,-9.0,0.4,6.4,-0.6,0.32,-0.07,0.94,0.04,0.0,0.0,0.0
1752860475294,347.0,-27.0,-179.0,-5.0,7.0,-10.0,-1.4,6.2,-0.5,0.25,-0.1,0.96,0.03,0.0,0.0,0.0
1752860475639,332.0,-26.0,-174.0,-10.0,-1.0,-12.0,-5.4,-2.1,-3.6,0.05,-0.27,0.96,0.09,0.0,0.0,0.0
1752860475786,334.0,-36.0,-178.0,-6.0,8.0,-6.0,3.5,9.2,-2.0,0.27,-0.22,0.93,0.09,0.0,0.0,0.0
1752860475832,343.0,-73.0,178.0,-5.0,7.0,-4.0,5.0,7.3,-1.6,0.59,-0.13,0.79,0.09,0.0,0.0,0.0
1752860475876,336.0,-83.0,-159.0,-3.0,6.0,-0.0,8.2,8.2,-0.8,0.64,-0.12,0.75,0.13,0.0,0.0,0.0
1752860475919,331.0,-82.0,-100.0,0.0,11.0,-0.0,10.6,9.9,0.3,0.68,-0.08,0.71,0.17,0.0,0.0,0.0
1752860475956,325.0,-74.0,-76.0,2.0,11.0,0.0,12.0,7.2,-0.6,0.7,-0.03,0.68,0.22,0.0,0.0,0.0
1752860476000,314.0,-65.0,-77.0,5.0,8.0,-1.0,13.6,4.0,-2.0,0.69,0.01,0.67,0.28,0.0,0.0,0.0
1752860476039,305.0,-58.0,-85.0,7.0,8.0,-5.0,15.3,2.2,-4.7,0.65,0.04,0.68,0.33,0.0,0.0,0.0
1752860476086,301.0,-54.0,-95.0,1.0,4.0,-3.0,8.0,-1.3,-1.6,0.61,0.08,0.71,0.34,0.0,0.0,0.0
1752860476235,298.0,-54.0,-112.0,-4.0,6.0,-5.0,-1.2,4.2,2.4,0.53,0.03,0.78,0.32,0.0,0.0,0.0
1752860476281,330.0,-41.0,-165.0,-9.0,5.0,-4.0,-2.3,2.9,3.6,0.31,-0.24,0.9,0.19,0.0,0.0,0.0
1752860476331,323.0,-39.0,-169.0,-9.0,3.0,-5.0,-3.0,1.3,2.8,0.29,-0.3,0.89,0.18,0.0,0.0,0.0
1752860476378,318.0,-39.0,-172.0,-9.0,1.0,-6.0,-3.1,-0.5,1.0,0.29,-0.33,0.88,0.17,0.0,0.0,0.0
1752860476420,315.0,-41.0,-174.0,-10.0,1.0,-6.0,-2.6,-0.3,1.5,0.31,-0.36,0.87,0.17,0.0,0.0,0.0
1752860476459,313.0,-44.0,-175.0,-10.0,-0.0,-4.0,-2.6,-0.5,2.6,0.33,-0.37,0.85,0.18,0.0,0.0,0.0
1752860476600,315.0,-59.0,179.0,-10.0,0.0,-3.0,-1.8,0.4,2.3,0.35,-0.37,0.84,0.18,0.0,0.0,0.0
1752860476641,316.0,-61.0,175.0,-2.0,6.0,-9.0,6.4,6.1,-3.9,0.48,-0.35,0.78,0.2,0.0,0.0,0.0
1752860476783,323.0,-76.0,170.0,-6.0,6.0,1.0,3.1,6.0,2.8,0.46,-0.36,0.79,0.17,0.0,0.0,0.0
1752860476836,322.0,-81.0,176.0,-5.0,6.0,2.0,4.8,6.1,2.7,0.61,-0.26,0.72,0.21,0.0,0.0,0.0
1752860476884,320.0,-86.0,-178.0,-4.0,7.0,3.0,6.0,6.7,3.3,0.64,-0.22,0.69,0.23,0.0,0.0,0.0
1752860476910,316.0,-83.0,-7.0,-3.0,7.0,4.0,6.9,5.8,4.0,0.66,-0.19,0.68,0.26,0.0,0.0,0.0
1752860477056,303.0,-70.0,-82.0,0.0,10.0,5.0,9.2,7.0,4.2,0.66,-0.16,0.67,0.28,0.0,0.0,0.0
1752860477092,298.0,-67.0,-90.0,-0.0,10.0,3.0,8.9,6.2,3.2,0.61,-0.1,0.7,0.36,0.0,0.0,0.0
1752860477338,297.0,-49.0,-165.0,-13.0,3.0,-5.0,-1.2,2.1,-0.6,0.58,-0.1,0.72,0.37,0.0,0.0,0.0
1752860477484,300.0,-47.0,-172.0,-11.0,-1.0,-4.0,0.0,0.0,0.0,0.35,-0.36,0.84,0.2,0.0,0.0,0.0
1752860477538,299.0,-49.0,-171.0,-10.0,0.0,-5.0,0.0,0.0,0.0,0.36,-0.36,0.83,0.21,0.0,0.0,0.0
1752860477584,301.0,-51.0,-172.0,-10.0,1.0,-5.0,-1.9,0.6,1.3,0.38,-0.35,0.83,0.21,0.0,0.0,0.0
1752860477731,308.0,-62.0,-168.0,-9.0,6.0,-3.0,0.4,4.8,2.0,0.4,-0.34,0.82,0.21,0.0,0.0,0.0
1752860478394,151.0,-47.0,-160.0,-5.0,4.0,-8.0,2.3,2.2,-1.1,-0.11,-0.9,0.05,0.42,0.0,0.0,0.0
1752860478541,146.0,-44.0,-164.0,-9.0,1.0,-6.0,-2.4,-1.4,1.4,-0.11,-0.91,0.03,0.4,0.0,0.0,0.0
1752860478586,146.0,-44.0,-165.0,-9.0,1.0,-5.0,0.0,0.0,0.0,-0.12,-0.92,-0.03,0.38,0.0,0.0,0.0
1752860478752,155.0,-50.0,-166.0,-9.0,3.0,-5.0,-1.5,1.9,1.3,-0.11,-0.92,-0.03,0.38,0.0,0.0,0.0
1752860478781,159.0,-53.0,-167.0,-9.0,4.0,-4.0,-1.2,3.0,2.3,-0.08,-0.89,-0.01,0.45,0.0,0.0,0.0
1752860478819,166.0,-59.0,-168.0,-9.0,6.0,-3.0,-0.9,4.5,2.0,-0.06,-0.87,-0.0,0.48,0.0,0.0,0.0
1752860478963,175.0,-68.0,-172.0,-7.0,8.0,2.0,2.3,7.1,5.6,-0.05,-0.85,-0.0,0.52,0.0,0.0,0.0
1752860478996,175.0,-72.0,-166.0,-6.0,8.0,3.0,3.8,7.6,5.3,-0.03,-0.81,0.02,0.59,0.0,0.0,0.0
1752860479148,168.0,-74.0,-127.0,-1.0,9.0,4.0,8.1,6.5,5.2,-0.03,-0.79,0.04,0.61,0.0,0.0,0.0
1752860479187,164.0,-71.0,-125.0,-1.0,9.0,4.0,8.3,6.1,6.0,-0.09,-0.76,0.11,0.63,0.0,0.0,0.0
1752860479332,156.0,-55.0,-150.0,-5.0,8.0,-4.0,2.1,4.5,1.2,-0.1,-0.78,0.12,0.61,0.0,0.0,0.0
1752860479381,152.0,-48.0,-157.0,-7.0,6.0,-6.0,0.0,3.3,0.3,-0.11,-0.89,0.09,0.44,0.0,0.0,0.0
1752860479527,180.0,-35.0,-165.0,-8.0,2.0,-8.0,-2.5,-0.2,0.3,-0.11,-0.95,-0.0,0.3,0.0,0.0,0.0
1752860479575,178.0,-34.0,-164.0,-8.0,1.0,-7.0,-2.9,-1.5,1.0,-0.12,-0.95,-0.02,0.29,0.0,0.0,0.0
1752860479613,176.0,-34.0,-164.0,-9.0,1.0,-7.0,-3.0,-1.7,1.0,-0.13,-0.95,-0.03,0.29,0.0,0.0,0.0
1752860479647,175.0,-36.0,-164.0,-16.0,1.0,-6.0,-9.6,-1.3,1.1,-0.13,-0.94,-0.04,0.3,0.0,0.0,0.0
1752860479793,152.0,-48.0,-165.0,-9.0,4.0,-5.0,-1.0,2.8,0.8,-0.13,-0.94,-0.04,0.32,0.0,0.0,0.0
1752860479852,157.0,-51.0,-166.0,-9.0,5.0,-4.0,-1.0,4.0,1.5,-0.09,-0.9,-0.0,0.44,0.0,0.0,0.0
1752860479993,171.0,-68.0,-163.0,-8.0,7.0,1.0,1.2,5.7,4.4,-0.05,-0.82,0.04,0.56,0.0,0.0,0.0
1752860480041,172.0,-73.0,-161.0,-5.0,7.0,2.0,3.8,6.6,3.8,-0.04,-0.8,0.03,0.59,0.0,0.0,0.0
1752860480078,173.0,-76.0,-159.0,-6.0,6.0,3.0,0.2,6.7,7.8,-0.04,-0.78,0.02,0.62,0.0,0.0,0.0
1752860480124,174.0,-79.0,-150.0,-7.0,7.0,5.0,8.7,4.5,3.4,-0.03,-0.76,0.04,0.64,0.0,0.0,0.0
1752860480159,174.0,-81.0,-130.0,-2.0,7.0,4.0,7.7,5.6,5.1,-0.03,-0.75,0.05,0.66,0.0,0.0,0.0
1752860480211,173.0,-80.0,-110.0,-0.0,7.0,5.0,9.3,5.2,5.2,-0.04,-0.73,0.06,0.68,0.0,0.0,0.0
1752860480243,170.0,-77.0,-103.0,1.0,8.0,4.0,10.8,5.8,5.0,-0.05,-0.72,0.09,0.69,0.0,0.0,0.0
1752860480389,158.0,-61.0,-130.0,-1.0,10.0,-0.0,6.8,6.4,3.6,-0.11,-0.79,0.16,0.58,0.0,0.0,0.0
1752860480453,153.0,-53.0,-143.0,-3.0,10.0,-5.0,3.9,6.8,-0.6,-0.12,-0.83,0.16,0.52,0.0,0.0,0.0
1752860480591,150.0,-45.0,-153.0,-8.0,3.0,-8.0,-3.0,1.0,0.2,-0.11,-0.89,0.14,0.41,0.0,0.0,0.0
1752860480638,181.0,-26.0,-166.0,-8.0,2.0,-8.0,-3.5,-0.5,0.6,-0.11,-0.97,0.02,0.23,0.0,0.0,0.0
1752860480673,178.0,-27.0,-167.0,-8.0,1.0,-9.0,-3.9,-0.5,-0.8,-0.11,-0.97,-0.01,0.23,0.0,0.0,0.0
1752860480721,175.0,-27.0,-168.0,-8.0,1.0,-10.0,-3.8,-1.3,-1.9,-0.11,-0.97,-0.04,0.23,0.0,0.0,0.0
1752860480757,173.0,-28.0,-169.0,-8.0,0.0,-10.0,-3.1,-1.3,-1.3,-0.1,-0.97,-0.05,0.23,0.0,0.0,0.0
1752860480905,178.0,-42.0,-172.0,-10.0,-1.0,-9.0,-3.4,-0.6,-1.3,-0.1,-0.96,-0.06,0.25,0.0,0.0,0.0
1752860480938,171.0,-49.0,-174.0,-11.0,1.0,-7.0,-2.8,0.8,-1.0,-0.03,-0.91,0.01,0.41,0.0,0.0,0.0
1752860480992,182.0,-56.0,-177.0,-11.0,3.0,-7.0,-2.1,3.2,-1.6,0.01,-0.88,0.04,0.47,0.0,0.0,0.0
1752860481027,190.0,-65.0,180.0,-10.0,5.0,-6.0,-0.6,5.3,-2.1,0.05,-0.84,0.07,0.53,0.0,0.0,0.0
1752860481081,198.0,-75.0,177.0,-8.0,7.0,-5.0,1.1,7.1,-2.9,0.09,-0.8,0.11,0.59,0.0,0.0,0.0
1752860481099,202.0,-83.0,180.0,-6.0,10.0,-3.0,4.1,9.9,-1.8,0.12,-0.75,0.14,0.64,0.0,0.0,0.0
1752860481241,201.0,-71.0,-28.0,2.0,12.0,1.0,11.4,10.5,-1.8,0.14,-0.7,0.16,0.69,0.0,0.0,0.0
1752860481292,198.0,-65.0,-33.0,5.0,12.0,1.0,13.9,9.5,-2.0,0.13,-0.53,0.22,0.81,0.0,0.0,0.0
1752860481339,192.0,-60.0,-39.0,6.0,10.0,2.0,15.2,6.9,-2.2,0.09,-0.5,0.24,0.83,0.0,0.0,0.0
1752860481376,183.0,-56.0,-49.0,7.0,10.0,1.0,15.6,5.2,-2.1,0.03,-0.5,0.26,0.83,0.0,0.0,0.0
1752860481409,175.0,-55.0,-61.0,7.0,9.0,-0.0,14.6,4.1,-2.6,-0.02,-0.52,0.28,0.81,0.0,0.0,0.0
1752860481458,168.0,-55.0,-76.0,5.0,7.0,-4.0,12.6,1.8,-5.3,-0.07,-0.56,0.3,0.77,0.0,0.0,0.0
1752860481601,156.0,-49.0,-144.0,-7.0,8.0,-9.0,-1.3,4.5,-3.1,-0.1,-0.62,0.31,0.71,0.0,0.0,0.0
1752860481649,153.0,-42.0,-156.0,-8.0,7.0,-10.0,-2.2,3.8,-2.4,-0.1,-0.9,0.17,0.39,0.0,0.0,0.0
1752860481789,177.0,-27.0,-170.0,-8.0,1.0,-9.0,-3.8,-1.7,-0.8,-0.1,-0.94,0.1,0.32,0.0,0.0,0.0
1752860481831,174.0,-28.0,-172.0,-8.0,-1.0,-10.0,-3.6,-2.6,-2.1,-0.08,-0.97,-0.05,0.24,0.0,0.0,0.0
1752860481881,172.0,-31.0,-174.0,-8.0,-1.0,-10.0,-2.9,-1.6,-1.8,-0.07,-0.96,-0.06,0.26,0.0,0.0,0.0
1752860481915,173.0,-35.0,-176.0,-8.0,-1.0,-8.0,-2.6,-1.9,-0.4,-0.06,-0.95,-0.06,0.29,0.0,0.0,0.0
1752860482513,183.0,-73.0,-70.0,2.0,4.0,-0.0,10.1,1.0,-1.1,0.02,-0.64,0.2,0.74,0.0,0.0,0.0
1752860482563,180.0,-72.0,-108.0,-1.0,5.0,-3.0,7.5,1.4,-1.0,-0.0,-0.7,0.21,0.69,0.0,0.0,0.0
1752860482709,191.0,-51.0,-169.0,-9.0,8.0,-9.0,-1.3,6.7,-2.9,0.04,-0.86,0.23,0.46,0.0,0.0,0.0
1752860482754,206.0,-42.0,-174.0,-8.0,6.0,-10.0,-2.3,5.0,-2.4,0.04,-0.9,0.22,0.38,0.0,0.0,0.0
1752860482799,203.0,-33.0,-177.0,-8.0,4.0,-9.0,-3.1,3.8,-0.5,0.04,-0.94,0.19,0.28,0.0,0.0,0.0
1752860482848,200.0,-24.0,-179.0,-6.0,4.0,-11.0,-2.9,3.6,-1.5,0.03,-0.96,0.17,0.2,0.0,0.0,0.0
1752860482993,194.0,-11.0,179.0,-3.0,1.0,-11.0,-1.1,1.7,-1.1,0.03,-0.98,0.16,0.15,0.0,0.0,0.0
1752860483132,194.0,-8.0,178.0,-1.0,0.0,-11.0,-0.2,0.9,-1.7,0.02,-0.99,0.12,0.08,0.0,0.0,0.0
1752860483162,195.0,-7.0,177.0,-1.0,0.0,-11.0,-0.1,0.8,-1.5,0.04,-0.99,0.13,0.06,0.0,0.0,0.0
1752860483205,197.0,-7.0,176.0,-1.0,1.0,-10.0,-0.0,1.6,-0.1,0.04,-0.99,0.14,0.06,0.0,0.0,0.0
1752860483352,209.0,-14.0,172.0,-3.0,4.0,-9.0,-0.1,5.6,0.3,0.05,-0.98,0.16,0.06,0.0,0.0,0.0
1752860483498,220.0,-23.0,172.0,-0.0,6.0,-8.0,3.7,6.9,0.9,0.13,-0.92,0.33,0.17,0.0,0.0,0.0
1752860483535,223.0,-25.0,172.0,0.0,6.0,-7.0,4.7,7.7,1.9,0.14,-0.91,0.35,0.18,0.0,0.0,0.0
1752860483587,224.0,-26.0,172.0,0.0,6.0,-7.0,4.6,7.6,2.2,0.14,-0.9,0.36,0.18,0.0,0.0,0.0
1752860483723,225.0,-25.0,171.0,-0.0,7.0,-8.0,2.6,7.4,1.5,0.15,-0.9,0.37,0.18,0.0,0.0,0.0
1752860483757,225.0,-16.0,176.0,-1.0,7.0,-8.0,1.9,7.2,1.6,0.08,-0.91,0.38,0.12,0.0,0.0,0.0
1752860483900,219.0,-7.0,174.0,-1.0,4.0,-9.0,0.4,4.9,0.5,0.08,-0.92,0.38,0.1,0.0,0.0,0.0
1752860483943,216.0,-4.0,174.0,-0.0,4.0,-10.0,0.4,4.8,-0.4,0.07,-0.95,0.31,0.03,0.0,0.0,0.0
1752860484502,177.0,0.0,-178.0,-2.0,3.0,-9.0,-1.9,2.6,1.0,-0.04,-1.0,0.04,-0.02,0.0,0.0,0.0
1752860484745,178.0,-2.0,-178.0,-1.0,2.0,-10.0,-0.7,2.1,0.2,-0.01,-1.0,-0.02,-0.0,0.0,0.0,0.0
1752860484795,178.0,-2.0,-178.0,-1.0,2.0,-10.0,-0.4,1.6,0.2,-0.02,-1.0,-0.01,0.02,0.0,0.0,0.0
1752860484829,179.0,-2.0,-178.0,-1.0,2.0,-10.0,-0.4,1.2,0.1,-0.01,-1.0,-0.01,0.02,0.0,0.0,0.0
1752860485084,179.0,-2.0,-179.0,-2.0,1.0,-10.0,-1.2,1.1,-0.1,-0.01,-1.0,-0.01,0.02,0.0,0.0,0.0
1752860485085,179.0,-4.0,-178.0,-2.0,1.0,-9.0,-1.5,1.1,0.3,-0.01,-1.0,-0.01,0.03,0.0,0.0,0.0
1752860485367,178.0,-9.0,-175.0,-3.0,3.0,-9.0,-1.6,2.3,0.6,-0.04,-1.0,-0.01,0.08,0.0,0.0,0.0
1752860485424,178.0,-10.0,-173.0,-3.0,3.0,-9.0,-1.3,2.1,0.3,-0.06,-0.99,-0.02,0.08,0.0,0.0,0.0
1752860485460,177.0,-10.0,-171.0,-3.0,4.0,-9.0,-1.2,2.2,0.6,-0.07,-0.99,-0.02,0.09,0.0,0.0,0.0
1752860485615,174.0,-9.0,-165.0,-3.0,4.0,-8.0,-1.8,1.7,1.1,-0.09,-0.99,-0.03,0.09,0.0,0.0,0.0
1752860485649,173.0,-8.0,-164.0,-3.0,4.0,-7.0,-1.6,1.3,2.3,-0.15,-0.99,-0.06,0.06,0.0,0.0,0.0
1752860485699,172.0,-7.0,-162.0,-3.0,5.0,-7.0,-1.7,1.6,2.4,-0.16,-0.98,-0.06,0.05,0.0,0.0,0.0
1752860485748,171.0,-6.0,-161.0,-3.0,5.0,-7.0,-1.7,1.9,2.4,-0.16,-0.98,-0.07,0.04,0.0,0.0,0.0
1752860485782,171.0,-5.0,-161.0,-3.0,5.0,-7.0,-1.8,2.3,2.3,-0.17,-0.98,-0.08,0.03,0.0,0.0,0.0
1752860485831,170.0,-4.0,-161.0,-3.0,6.0,-7.0,-2.0,2.4,1.7,-0.17,-0.98,-0.08,0.03,0.0,0.0,0.0
1752860485862,170.0,-4.0,-160.0,-3.0,5.0,-7.0,-2.1,2.1,1.7,-0.17,-0.98,-0.09,0.02,0.0,0.0,0.0
1752860485913,169.0,-4.0,-160.0,-3.0,5.0,-7.0,-2.3,2.0,2.3,-0.17,-0.98,-0.09,0.02,0.0,0.0,0.0
1752860485962,169.0,-4.0,-160.0,-3.0,5.0,-7.0,-2.4,1.5,1.8,-0.18,-0.98,-0.09,0.02,0.0,0.0,0.0
1752860486111,169.0,-8.0,-157.0,-3.0,4.0,-8.0,-1.7,0.4,1.4,-0.21,-0.97,-0.09,0.05,0.0,0.0,0.0
1752860486158,169.0,-9.0,-156.0,-3.0,5.0,-8.0,-1.4,0.7,1.3,-0.21,-0.97,-0.09,0.06,0.0,0.0,0.0
1752860486309,168.0,-12.0,-156.0,-3.0,5.0,-8.0,-0.7,0.7,1.0,-0.21,-0.97,-0.09,0.07,0.0,0.0,0.0
1752860486345,168.0,-12.0,-156.0,-3.0,5.0,-8.0,-0.8,1.0,0.9,-0.21,-0.97,-0.1,0.09,0.0,0.0,0.0
1752860486387,167.0,-13.0,-156.0,-3.0,5.0,-8.0,-0.5,0.7,0.9,-0.21,-0.97,-0.11,0.09,0.0,0.0,0.0
1752860486630,167.0,-14.0,-156.0,-2.0,5.0,-7.0,-0.2,0.8,1.3,-0.21,-0.97,-0.11,0.1,0.0,0.0,0.0
1752860486677,163.0,-11.0,-156.0,-2.0,5.0,-8.0,0.0,1.1,0.8,-0.21,-0.96,-0.14,0.07,0.0,0.0,0.0
1752860486710,163.0,-11.0,-156.0,-2.0,5.0,-8.0,0.1,1.3,1.2,-0.21,-0.96,-0.14,0.07,0.0,0.0,0.0
1752860486864,163.0,-10.0,-154.0,-2.0,6.0,-8.0,-0.4,1.3,0.6,-0.21,-0.96,-0.14,0.06,0.0,0.0,0.0
1752860486914,164.0,-10.0,-155.0,-2.0,5.0,-8.0,-0.5,1.3,0.4,-0.23,-0.96,-0.14,0.06,0.0,0.0,0.0
1752860487058,168.0,-9.0,-151.0,-2.0,8.0,-7.0,-1.0,2.1,1.9,-0.24,-0.96,-0.13,0.06,0.0,0.0,0.0
1752860487102,168.0,-9.0,-150.0,-2.0,7.0,-7.0,-0.4,1.5,1.2,-0.26,-0.96,-0.1,0.06,0.0,0.0,0.0
1752860487152,169.0,-10.0,-147.0,-2.0,3.0,-8.0,-0.3,-1.7,0.1,-0.28,-0.95,-0.09,0.06,0.0,0.0,0.0
1752860487200,169.0,-10.0,-146.0,-2.0,3.0,-8.0,-0.4,-1.3,0.3,-0.3,-0.95,-0.09,0.06,0.0,0.0,0.0
1752860487924,4.0,-10.0,-128.0,-3.0,8.0,-4.0,-1.2,0.9,2.3,-0.44,-0.88,-0.16,0.02,0.0,0.0,0.0
1752860487969,5.0,-9.0,-129.0,-2.0,7.0,-5.0,-0.9,-0.2,1.4,-0.44,-0.89,-0.15,0.02,0.0,0.0,0.0
1752860488113,8.0,-9.0,-130.0,-2.0,8.0,-5.0,-0.3,0.4,1.3,-0.43,-0.89,-0.14,0.02,0.0,0.0,0.0
1752860488155,9.0,-9.0,-130.0,-2.0,8.0,-5.0,-0.8,0.8,1.7,-0.43,-0.9,-0.11,0.03,0.0,0.0,0.0
1752860488198,11.0,-9.0,-131.0,-2.0,6.0,-7.0,-0.2,-0.4,-0.3,-0.42,-0.9,-0.1,0.04,0.0,0.0,0.0
1752860488555,45.0,-20.0,-133.0,-4.0,7.0,-5.0,-0.3,0.6,1.3,-0.39,-0.9,-0.07,0.16,0.0,0.0,0.0
1752860488706,61.0,-26.0,-136.0,-5.0,7.0,-4.0,-0.9,0.3,1.5,-0.38,-0.91,-0.07,0.18,0.0,0.0,0.0
1752860488743,64.0,-27.0,-135.0,-5.0,6.0,-5.0,0.0,0.0,0.0,-0.36,-0.9,-0.07,0.23,0.0,0.0,0.0
1752860488791,66.0,-28.0,-135.0,-5.0,7.0,-4.0,-0.4,0.8,1.5,-0.36,-0.9,-0.06,0.24,0.0,0.0,0.0
1752860488932,76.0,-32.0,-134.0,-5.0,7.0,-5.0,0.3,0.7,1.0,-0.36,-0.9,-0.06,0.25,0.0,0.0,0.0
1752860488987,78.0,-32.0,-133.0,-5.0,6.0,-5.0,0.1,0.3,1.0,-0.36,-0.89,-0.04,0.28,0.0,0.0,0.0
1752860489210,81.0,-34.0,-128.0,-6.0,6.0,-4.0,-0.0,-0.1,0.7,-0.36,-0.89,-0.03,0.29,0.0,0.0,0.0
1752860489264,82.0,-34.0,-128.0,-5.0,7.0,-4.0,0.2,0.3,1.1,-0.38,-0.87,-0.0,0.32,0.0,0.0,0.0
1752860489515,84.0,-36.0,-127.0,-5.0,6.0,-4.0,0.3,0.0,0.7,-0.38,-0.86,0.0,0.34,0.0,0.0,0.0
1752860489576,84.0,-36.0,-127.0,-5.0,7.0,-4.0,0.3,0.1,0.8,-0.38,-0.86,-0.0,0.34,0.0,0.0,0.0
1752860489610,84.0,-36.0,-127.0,-5.0,6.0,-4.0,0.3,-0.1,0.6,-0.38,-0.86,-0.01,0.34,0.0,0.0,0.0
1752860489662,84.0,-36.0,-127.0,-5.0,6.0,-4.0,0.3,0.1,0.7,-0.38,-0.86,-0.01,0.34,0.0,0.0,0.0
1752860489901,84.0,-37.0,-126.0,-5.0,6.0,-4.0,0.8,0.1,0.6,-0.38,-0.86,-0.01,0.34,0.0,0.0,0.0
1752860490054,89.0,-41.0,-123.0,-6.0,6.0,-3.0,-0.0,-0.1,0.9,-0.38,-0.84,-0.02,0.38,0.0,0.0,0.0
1752860490096,91.0,-42.0,-122.0,-7.0,6.0,-3.0,-0.2,0.0,0.8,-0.38,-0.83,-0.02,0.39,0.0,0.0,0.0
1752860490140,93.0,-43.0,-122.0,-7.0,6.0,-3.0,-0.5,-0.2,0.5,-0.38,-0.83,-0.02,0.4,0.0,0.0,0.0
1752860490175,95.0,-45.0,-121.0,-8.0,6.0,-2.0,-0.6,-0.1,1.1,-0.38,-0.83,-0.02,0.41,0.0,0.0,0.0
1752860490330,96.0,-45.0,-120.0,-7.0,6.0,-3.0,0.0,0.0,0.6,-0.38,-0.82,-0.02,0.42,0.0,0.0,0.0
1752860490373,96.0,-46.0,-117.0,-7.0,6.0,-2.0,0.3,0.1,0.8,-0.39,-0.81,-0.02,0.44,0.0,0.0,0.0
1752860490626,94.0,-44.0,-113.0,-7.0,6.0,-2.0,0.2,-0.3,0.6,-0.39,-0.81,-0.01,0.44,0.0,0.0,0.0
1752860490773,96.0,-46.0,-111.0,-7.0,6.0,-3.0,-0.4,-0.3,0.0,-0.41,-0.8,0.0,0.44,0.0,0.0,0.0
1752860490824,96.0,-46.0,-111.0,-7.0,7.0,-2.0,0.4,0.5,0.8,-0.41,-0.79,-0.0,0.46,0.0,0.0,0.0
1752860491070,100.0,-50.0,-110.0,-7.0,6.0,-2.0,0.9,0.1,-0.2,-0.4,-0.78,-0.03,0.48,0.0,0.0,0.0
1752860491215,101.0,-53.0,-115.0,-7.0,5.0,-2.0,0.9,-0.3,0.1,-0.4,-0.78,-0.04,0.48,0.0,0.0,0.0
1752860491262,102.0,-53.0,-117.0,-7.0,4.0,-4.0,0.5,-0.9,-1.1,-0.38,-0.79,-0.08,0.47,0.0,0.0,0.0
1752860491404,102.0,-49.0,-123.0,-6.0,3.0,-3.0,1.5,-2.0,-0.1,-0.37,-0.8,-0.08,0.46,0.0,0.0,0.0
1752860491454,102.0,-48.0,-124.0,-6.0,5.0,-4.0,0.9,0.2,-0.6,-0.35,-0.83,-0.03,0.44,0.0,0.0,0.0
1752860491486,104.0,-48.0,-124.0,-7.0,6.0,-5.0,0.5,0.5,-1.4,-0.35,-0.83,-0.03,0.44,0.0,0.0,0.0
1752860491534,106.0,-49.0,-125.0,-7.0,5.0,-5.0,0.4,0.0,-1.3,-0.34,-0.83,-0.02,0.44,0.0,0.0,0.0
1752860491571,107.0,-48.0,-127.0,-7.0,5.0,-5.0,0.3,-0.7,-0.6,-0.33,-0.84,-0.01,0.44,0.0,0.0,0.0
1752860491718,109.0,-49.0,-127.0,-8.0,3.0,-5.0,-0.5,-1.7,-1.4,-0.32,-0.84,-0.01,0.44,0.0,0.0,0.0
1752860491768,110.0,-50.0,-126.0,-8.0,5.0,-5.0,-0.3,-0.4,-0.4,-0.32,-0.83,-0.01,0.45,0.0,0.0,0.0
1752860491802,111.0,-50.0,-127.0,-7.0,5.0,-4.0,0.3,-0.6,-0.0,-0.31,-0.83,-0.01,0.46,0.0,0.0,0.0
1752860491835,112.0,-51.0,-127.0,-7.0,5.0,-5.0,0.6,-0.1,-1.4,-0.31,-0.83,-0.01,0.46,0.0,0.0,0.0
1752860491886,113.0,-52.0,-128.0,-7.0,5.0,-5.0,0.5,0.4,-1.0,-0.31,-0.83,-0.02,0.47,0.0,0.0,0.0
1752860492138,114.0,-52.0,-129.0,-7.0,5.0,-5.0,1.2,-1.1,-6.0,-0.3,-0.83,-0.02,0.47,0.0,0.0,0.0
1752860492179,124.0,-50.0,-143.0,-8.0,2.0,-7.0,1.6,-0.9,-2.8,-0.23,-0.87,-0.01,0.44,0.0,0.0,0.0
1752860492221,117.0,-48.0,-143.0,-10.0,4.0,3.0,-2.5,-0.1,8.0,-0.24,-0.88,-0.03,0.41,0.0,0.0,0.0
1752860492469,120.0,-49.0,-142.0,-7.0,13.0,-3.0,1.5,7.0,2.6,-0.28,-0.87,-0.07,0.4,0.0,0.0,0.0
1752860492520,137.0,-48.0,-150.0,-7.0,2.0,-7.0,0.8,-0.7,-1.0,-0.17,-0.89,0.03,0.43,0.0,0.0,0.0
1752860492658,148.0,-48.0,-153.0,-10.0,-0.0,-3.0,-1.2,-4.7,0.3,-0.13,-0.89,0.09,0.43,0.0,0.0,0.0
1752860492707,149.0,-50.0,-146.0,-12.0,-0.0,-7.0,-2.9,-3.2,-0.3,-0.13,-0.87,0.15,0.46,0.0,0.0,0.0
1752860492741,165.0,-53.0,-151.0,-11.0,2.0,-6.0,-2.6,-0.4,-1.3,-0.08,-0.86,0.18,0.48,0.0,0.0,0.0
1752860492881,198.0,-73.0,-143.0,-7.0,5.0,-1.0,2.2,3.6,0.7,-0.02,-0.84,0.22,0.5,0.0,0.0,0.0
1752860492932,203.0,-76.0,-130.0,-5.0,8.0,-2.0,4.3,5.7,-1.0,0.12,-0.71,0.29,0.63,0.0,0.0,0.0
1752860493528,203.0,-21.0,-140.0,-5.0,1.0,-10.0,-1.8,-4.9,-3.3,-0.27,-0.91,0.19,0.25,0.0,0.0,0.0
1752860493571,200.0,-21.0,-139.0,-6.0,1.0,-12.0,-2.4,-5.5,-5.0,-0.29,-0.91,0.17,0.25,0.0,0.0,0.0
1752860493621,80.0,-21.0,-139.0,-5.0,-0.0,-10.0,-1.5,-6.1,-2.8,-0.3,-0.91,0.15,0.25,0.0,0.0,0.0
1752860493869,127.0,-35.0,-146.0,-9.0,2.0,-11.0,-2.1,1.5,-1.1,-0.29,-0.91,0.15,0.26,0.0,0.0,0.0
1752860493904,183.0,-54.0,-153.0,-9.0,5.0,-6.0,-0.8,2.5,-0.9,0.01,-0.82,0.3,0.49,0.0,0.0,0.0
1752860493946,194.0,-61.0,-151.0,-9.0,5.0,-5.0,-0.1,3.1,-1.1,0.06,-0.79,0.31,0.52,0.0,0.0,0.0
1752860494089,211.0,-79.0,-99.0,-7.0,6.0,-2.0,2.8,4.3,-2.2,0.1,-0.75,0.33,0.56,0.0,0.0,0.0
1752860494130,212.0,-78.0,-78.0,-5.0,7.0,-1.0,4.9,4.6,-1.2,0.2,-0.62,0.32,0.69,0.0,0.0,0.0
1752860494273,206.0,-67.0,-64.0,-1.0,6.0,1.0,8.1,2.1,-0.8,0.2,-0.61,0.32,0.7,0.0,0.0,0.0
1752860494320,203.0,-64.0,-69.0,-0.0,7.0,-0.0,8.5,2.3,-1.8,0.15,-0.53,0.38,0.75,0.0,0.0,0.0
1752860494356,198.0,-60.0,-76.0,0.0,9.0,-2.0,8.6,4.1,-3.4,0.12,-0.52,0.41,0.74,0.0,0.0,0.0
1752860494508,179.0,-50.0,-109.0,-3.0,9.0,-9.0,3.9,2.9,-6.3,0.1,-0.51,0.43,0.73,0.0,0.0,0.0
1752860494539,172.0,-46.0,-120.0,-5.0,7.0,-10.0,1.5,1.4,-6.1,-0.03,-0.65,0.49,0.58,0.0,0.0,0.0
1752860494575,164.0,-41.0,-130.0,-8.0,5.0,-13.0,-2.1,-0.7,-7.7,-0.06,-0.71,0.47,0.52,0.0,0.0,0.0
1752860494943,200.0,-21.0,-151.0,-5.0,-2.0,-11.0,-1.6,-6.2,-3.1,-0.21,-0.94,0.16,0.22,0.0,0.0,0.0
1752860494983,200.0,-24.0,-152.0,-5.0,-1.0,-10.0,-1.1,-5.3,-2.3,-0.19,-0.94,0.16,0.24,0.0,0.0,0.0
1752860495117,208.0,-37.0,-160.0,-7.0,2.0,-8.0,-0.8,-0.4,-1.3,-0.16,-0.93,0.17,0.27,0.0,0.0,0.0
1752860495264,198.0,-54.0,-162.0,-9.0,4.0,-7.0,0.0,0.0,0.0,-0.02,-0.89,0.26,0.38,0.0,0.0,0.0
1752860495306,203.0,-59.0,-160.0,-9.0,4.0,-7.0,-0.4,1.9,-2.8,0.1,-0.79,0.34,0.5,0.0,0.0,0.0
1752860495343,207.0,-64.0,-157.0,-9.0,4.0,-7.0,0.2,1.8,-2.8,0.13,-0.76,0.35,0.53,0.0,0.0,0.0
1752860495386,213.0,-70.0,-152.0,-8.0,4.0,-5.0,1.1,2.5,-2.5,0.16,-0.73,0.36,0.56,0.0,0.0,0.0
1752860495428,218.0,-75.0,-147.0,-7.0,5.0,-3.0,2.6,3.6,-1.4,0.2,-0.7,0.36,0.58,0.0,0.0,0.0
1752860495734,213.0,-67.0,-85.0,2.0,7.0,-2.0,11.3,2.8,-2.0,0.2,-0.54,0.44,0.69,0.0,0.0,0.0
1752860495867,186.0,-45.0,-135.0,-4.0,6.0,-14.0,1.8,1.2,-8.0,0.16,-0.55,0.48,0.66,0.0,0.0,0.0
1752860496918,216.0,-67.0,-168.0,-7.0,6.0,-6.0,2.2,5.3,-2.2,0.17,-0.76,0.33,0.53,0.0,0.0,0.0
1752860496954,220.0,-73.0,-158.0,-6.0,7.0,-4.0,4.3,5.5,-1.3,0.2,-0.71,0.36,0.57,0.0,0.0,0.0
1752860496989,221.0,-77.0,-130.0,-3.0,8.0,-2.0,6.3,6.2,-0.7,0.22,-0.67,0.38,0.6,0.0,0.0,0.0
1752860497042,219.0,-76.0,-104.0,-1.0,8.0,-1.0,8.2,4.9,-0.7,0.23,-0.62,0.4,0.64,0.0,0.0,0.0
1752860497186,203.0,-57.0,-89.0,4.0,8.0,-3.0,11.9,2.4,-3.5,0.15,-0.5,0.48,0.7,0.0,0.0,0.0
1752860497744,175.0,-7.0,-158.0,0.0,-1.0,-11.0,1.4,-4.9,-1.7,-0.19,-0.98,-0.03,0.05,0.0,0.0,0.0
1752860497883,162.0,-16.0,-161.0,0.0,-1.0,-11.0,3.0,-3.7,-1.6,-0.19,-0.98,-0.07,0.07,0.0,0.0,0.0
1752860498137,188.0,-25.0,-163.0,-5.0,-2.0,-11.0,-1.5,-3.9,-2.2,-0.17,-0.96,-0.15,0.13,0.0,0.0,0.0
1752860498178,197.0,-27.0,-165.0,-7.0,0.0,-12.0,-2.5,-2.1,-3.7,-0.08,-0.95,0.14,0.25,0.0,0.0,0.0
1752860498221,208.0,-32.0,-166.0,-8.0,2.0,-12.0,-2.5,0.4,-3.6,-0.05,-0.93,0.21,0.28,0.0,0.0,0.0
1752860498262,216.0,-37.0,-167.0,-9.0,3.0,-12.0,-2.4,1.8,-4.2,0.01,-0.9,0.29,0.33,0.0,0.0,0.0
1752860498304,194.0,-43.0,-166.0,-8.0,4.0,-10.0,-0.7,3.0,-3.1,0.05,-0.86,0.33,0.38,0.0,0.0,0.0
1752860498352,205.0,-52.0,-164.0,-7.0,6.0,-9.0,0.8,4.0,-3.8,0.09,-0.82,0.37,0.43,0.0,0.0,0.0
1752860498388,211.0,-59.0,-160.0,-6.0,6.0,-8.0,2.2,4.7,-3.6,0.13,-0.78,0.39,0.48,0.0,0.0,0.0
1752860498538,221.0,-77.0,-118.0,-4.0,6.0,-2.0,5.9,4.5,-1.4,0.16,-0.74,0.4,0.52,0.0,0.0,0.0
1752860498681,221.0,-79.0,-93.0,-3.0,5.0,-0.0,6.2,2.7,-1.6,0.24,-0.61,0.37,0.66,0.0,0.0,0.0
1752860498824,218.0,-75.0,-54.0,-1.0,8.0,-1.0,8.4,4.4,-1.3,0.25,-0.55,0.34,0.72,0.0,0.0,0.0
1752860498873,212.0,-68.0,-100.0,-1.0,9.0,-4.0,7.3,5.3,-3.0,0.19,-0.57,0.45,0.66,0.0,0.0,0.0
1752860498920,207.0,-61.0,-118.0,-2.0,7.0,-6.0,6.3,2.8,-3.8,0.14,-0.61,0.49,0.61,0.0,0.0,0.0
1752860498954,201.0,-55.0,-129.0,-2.0,7.0,-8.0,6.2,2.7,-4.9,0.1,-0.64,0.52,0.56,0.0,0.0,0.0
1752860498997,195.0,-47.0,-142.0,-4.0,7.0,-10.0,3.5,2.6,-4.8,0.07,-0.69,0.53,0.49,0.0,0.0,0.0
1752860499043,190.0,-40.0,-152.0,-5.0,3.0,-13.0,0.5,-0.5,-5.7,0.04,-0.74,0.52,0.42,0.0,0.0,0.0
1752860503236,215.0,-60.0,-160.0,-4.0,8.0,-7.0,4.6,5.7,-2.5,0.15,-0.76,0.41,0.49,0.0,0.0,0.0
1752860503372,205.0,-66.0,-110.0,-1.0,6.0,-2.0,8.0,1.6,-0.5,0.16,-0.71,0.41,0.54,0.0,0.0,0.0
1752860503402,201.0,-63.0,-103.0,-1.0,5.0,-2.0,7.9,0.6,-0.6,0.13,-0.6,0.45,0.66,0.0,0.0,0.0
1752860504008,181.0,-6.0,-142.0,-1.0,1.0,-11.0,0.1,-4.8,-3.6,-0.32,-0.95,0.03,0.06,0.0,0.0,0.0
1752860504143,173.0,-8.0,-141.0,-1.0,1.0,-11.0,2.9,-4.4,-1.1,-0.33,-0.94,-0.04,0.05,0.0,0.0,0.0
1752860504194,151.0,-19.0,-149.0,0.0,1.0,-9.0,3.6,-3.0,-1.3,-0.29,-0.92,-0.24,0.1,0.0,0.0,0.0
1752860504336,148.0,-22.0,-155.0,-0.0,2.0,-11.0,2.8,-2.1,-1.9,-0.26,-0.92,-0.26,0.13,0.0,0.0,0.0
1752860504379,159.0,-23.0,-161.0,-1.0,1.0,-10.0,2.1,-1.5,-1.3,-0.19,-0.95,-0.18,0.17,0.0,0.0,0.0
1752860504413,166.0,-22.0,-161.0,-2.0,2.0,-10.0,0.9,-1.6,-1.8,-0.18,-0.96,-0.11,0.17,0.0,0.0,0.0
1752860504461,178.0,-21.0,-161.0,-4.0,0.0,-10.0,-0.2,-2.7,-1.5,-0.16,-0.97,-0.04,0.18,0.0,0.0,0.0
1752860504597,211.0,-30.0,-164.0,-7.0,3.0,-11.0,-2.3,0.7,-2.8,-0.14,-0.97,0.05,0.2,0.0,0.0,0.0
1752860504744,201.0,-48.0,-161.0,-4.0,10.0,-6.0,3.9,8.0,-0.3,-0.02,-0.9,0.31,0.31,0.0,0.0,0.0
1752860504797,205.0,-55.0,-153.0,-4.0,8.0,-5.0,4.3,5.3,-0.8,0.11,-0.75,0.44,0.48,0.0,0.0,0.0
1752860504832,205.0,-60.0,-141.0,-3.0,6.0,-5.0,5.3,3.1,-1.0,0.12,-0.71,0.45,0.53,0.0,0.0,0.0
1752860505038,202.0,-65.0,-105.0,-4.0,3.0,-2.0,5.1,-0.4,-0.7,0.13,-0.61,0.43,0.66,0.0,0.0,0.0
1752860505167,197.0,-59.0,-114.0,1.0,7.0,-3.0,8.9,2.2,-1.2,0.12,-0.6,0.44,0.66,0.0,0.0,0.0
1752860505210,194.0,-56.0,-122.0,1.0,7.0,-5.0,8.6,2.0,-1.3,0.08,-0.64,0.48,0.6,0.0,0.0,0.0
1752860505258,190.0,-51.0,-131.0,-0.0,6.0,-7.0,7.4,1.1,-2.3,0.05,-0.67,0.49,0.55,0.0,0.0,0.0
1752860505294,186.0,-45.0,-142.0,-3.0,5.0,-12.0,4.2,0.8,-5.7,0.03,-0.72,0.49,0.49,0.0,0.0,0.0
1752860505340,242.0,-38.0,-154.0,-5.0,9.0,-16.0,-0.5,6.1,-7.8,0.01,-0.78,0.48,0.4,0.0,0.0,0.0
1752860505384,233.0,-28.0,-162.0,-5.0,8.0,-16.0,-0.6,4.3,-7.3,-0.02,-0.86,0.43,0.28,0.0,0.0,0.0
1752860505418,221.0,-14.0,-164.0,-3.0,-3.0,-15.0,-0.8,-5.9,-5.8,-0.07,-0.91,0.36,0.19,0.0,0.0,0.0
1752860508222,210.0,-56.0,-163.0,-2.0,6.0,-3.0,6.3,4.2,1.6,0.13,-0.79,0.38,0.46,0.0,0.0,0.0
1752860508262,208.0,-58.0,-157.0,-2.0,6.0,-3.0,5.8,3.4,1.5,0.12,-0.77,0.39,0.49,0.0,0.0,0.0
1752860508305,204.0,-59.0,-148.0,-4.0,6.0,-3.0,4.9,3.0,1.1,0.11,-0.74,0.41,0.52,0.0,0.0,0.0
1752860508351,200.0,-59.0,-142.0,-4.0,6.0,-3.0,4.6,2.5,0.3,0.1,-0.73,0.42,0.53,0.0,0.0,0.0
1752860508402,195.0,-57.0,-138.0,-4.0,5.0,-5.0,4.3,1.7,-1.1,0.07,-0.72,0.43,0.54,0.0,0.0,0.0
1752860508452,189.0,-54.0,-137.0,-4.0,5.0,-5.0,3.9,1.6,-0.7,0.05,-0.72,0.44,0.53,0.0,0.0,0.0
1752860508489,184.0,-50.0,-140.0,-4.0,6.0,-6.0,2.7,2.2,-0.9,0.02,-0.74,0.44,0.51,0.0,0.0,0.0
1752860508522,178.0,-46.0,-143.0,-5.0,6.0,-6.0,1.9,1.5,-0.9,-0.01,-0.77,0.43,0.47,0.0,0.0,0.0
1752860508569,168.0,-40.0,-148.0,-5.0,5.0,-9.0,0.9,1.2,-2.3,-0.04,-0.8,0.41,0.43,0.0,0.0,0.0
1752860508606,227.0,-35.0,-151.0,-6.0,4.0,-9.0,-0.1,-0.1,-1.8,-0.07,-0.84,0.38,0.39,0.0,0.0,0.0
1752860508756,204.0,-20.0,-156.0,-6.0,3.0,-13.0,-1.9,0.0,-4.3,-0.1,-0.87,0.34,0.34,0.0,0.0,0.0
1752860508805,197.0,-17.0,-156.0,-3.0,4.0,-12.0,-0.6,-0.1,-3.7,-0.18,-0.96,0.14,0.18,0.0,0.0,0.0
1752860508846,190.0,-12.0,-155.0,-2.0,1.0,-11.0,0.2,-3.5,-1.5,-0.2,-0.97,0.09,0.13,0.0,0.0,0.0
1752860508887,184.0,-9.0,-154.0,-0.0,2.0,-9.0,1.3,-2.2,-0.0,-0.22,-0.97,0.03,0.09,0.0,0.0,0.0
1752860508922,179.0,-8.0,-153.0,1.0,2.0,-8.0,2.3,-1.8,0.3,-0.23,-0.97,-0.01,0.07,0.0,0.0,0.0
1752860508973,175.0,-8.0,-153.0,0.0,1.0,-10.0,1.7,-3.0,-1.5,-0.23,-0.97,-0.04,0.06,0.0,0.0,0.0
1752860509012,172.0,-9.0,-153.0,0.0,1.0,-11.0,1.6,-2.9,-2.3,-0.23,-0.97,-0.06,0.06,0.0,0.0,0.0
1752860509062,169.0,-9.0,-154.0,0.0,1.0,-11.0,1.6,-2.9,-1.8,-0.23,-0.97,-0.09,0.06,0.0,0.0,0.0
1752860509122,168.0,-9.0,-154.0,0.0,0.0,-10.0,1.5,-4.2,-1.6,-0.23,-0.97,-0.1,0.06,0.0,0.0,0.0
1752860509150,168.0,-9.0,-155.0,-0.0,-0.0,-10.0,1.4,-4.2,-1.6,-0.23,-0.97,-0.11,0.06,0.0,0.0,0.0
1752860509521,220.0,-31.0,-173.0,-6.0,2.0,-12.0,-1.2,0.8,-4.2,0.03,-0.91,0.31,0.26,0.0,0.0,0.0
1752860509654,225.0,-53.0,-173.0,-5.0,6.0,-8.0,3.1,5.4,-1.9,0.07,-0.88,0.36,0.29,0.0,0.0,0.0
1752860509804,228.0,-60.0,-171.0,-3.0,6.0,-2.0,6.8,3.3,-0.7,0.2,-0.75,0.43,0.46,0.0,0.0,0.0
1752860509954,207.0,-61.0,-116.0,-2.0,6.0,-5.0,6.0,1.5,-2.3,0.15,-0.59,0.5,0.61,0.0,0.0,0.0
1752860510001,200.0,-55.0,-123.0,-2.0,6.0,-5.0,6.3,1.0,-1.4,0.1,-0.62,0.53,0.58,0.0,0.0,0.0
1752860510154,193.0,-49.0,-132.0,-1.0,7.0,-6.0,1.7,0.5,-3.0,0.07,-0.65,0.54,0.54,0.0,0.0,0.0
1752860510192,245.0,-29.0,-153.0,-5.0,3.0,-11.0,-0.4,-0.6,-2.8,-0.04,-0.8,0.51,0.33,0.0,0.0,0.0
1752860510433,196.0,-2.0,-154.0,-1.0,1.0,-11.0,-0.6,-3.7,-2.5,-0.07,-0.84,0.46,0.27,0.0,0.0,0.0
1752860510672,166.0,-5.0,-147.0,1.0,2.0,-10.0,1.5,-3.3,-1.4,-0.25,-0.97,0.09,0.03,0.0,0.0,0.0
1752860510724,164.0,-7.0,-148.0,1.0,3.0,-9.0,1.9,-2.3,-0.4,-0.28,-0.95,-0.13,0.02,0.0,0.0,0.0
1752860511463,202.0,-59.0,-139.0,-1.0,6.0,-4.0,7.4,2.7,-0.5,0.11,-0.7,0.45,0.54,0.0,0.0,0.0
1752860511499,201.0,-61.0,-127.0,-1.0,6.0,-4.0,7.4,1.7,-1.6,0.11,-0.67,0.46,0.58,0.0,0.0,0.0
1752860511546,200.0,-61.0,-120.0,-1.0,5.0,-4.0,7.5,1.0,-1.4,0.1,-0.64,0.46,0.61,0.0,0.0,0.0
1752860511583,198.0,-60.0,-117.0,-1.0,5.0,-3.0,7.6,0.8,-0.8,0.1,-0.63,0.46,0.61,0.0,0.0,0.0
1752860511633,197.0,-59.0,-119.0,-1.0,5.0,-3.0,7.4,1.0,-0.8,0.09,-0.63,0.47,0.61,0.0,0.0,0.0
1752860511666,196.0,-57.0,-123.0,-1.0,6.0,-3.0,6.9,1.7,-0.0,0.08,-0.65,0.47,0.59,0.0,0.0,0.0
1752860511816,188.0,-43.0,-151.0,-4.0,7.0,-9.0,2.3,4.3,-2.5,0.03,-0.77,0.47,0.44,0.0,0.0,0.0
1752860512164,182.0,4.0,-151.0,1.0,0.0,-12.0,0.7,-4.9,-3.7,-0.16,-0.97,0.18,0.05,0.0,0.0,0.0
1752860512318,165.0,-0.0,-146.0,1.0,3.0,-9.0,1.7,-2.1,-1.0,-0.27,-0.96,-0.02,-0.04,0.0,0.0,0.0
1752860512366,162.0,-2.0,-149.0,1.0,3.0,-10.0,1.8,-2.2,-1.7,-0.27,-0.95,-0.15,-0.02,0.0,0.0,0.0
1752860512403,160.0,-5.0,-151.0,1.0,2.0,-10.0,1.9,-2.3,-1.7,-0.26,-0.95,-0.17,-0.0,0.0,0.0,0.0
1752860512553,161.0,-6.0,-153.0,0.0,3.0,-10.0,0.9,-0.5,-0.8,-0.24,-0.96,-0.17,0.01,0.0,0.0,0.0
1752860512603,172.0,-5.0,-159.0,-0.0,2.0,-10.0,0.2,-0.6,-1.0,-0.18,-0.98,-0.07,0.03,0.0,0.0,0.0
1752860512636,178.0,-5.0,-160.0,-1.0,4.0,-11.0,-0.4,0.6,-1.4,-0.17,-0.98,-0.02,0.04,0.0,0.0,0.0
1752860512676,186.0,-5.0,-163.0,-2.0,3.0,-10.0,-1.5,0.2,-0.6,-0.15,-0.99,0.04,0.05,0.0,0.0,0.0
1752860512720,193.0,-7.0,-164.0,-4.0,3.0,-11.0,-3.0,0.5,-1.2,-0.13,-0.98,0.1,0.07,0.0,0.0,0.0
1752860512866,214.0,-21.0,-168.0,-6.0,5.0,-9.0,-2.3,3.0,-0.4,-0.12,-0.98,0.15,0.09,0.0,0.0,0.0
1752860512904,220.0,-28.0,-169.0,-5.0,6.0,-8.0,-0.3,3.9,-0.1,-0.0,-0.91,0.33,0.26,0.0,0.0,0.0
1752860512954,226.0,-38.0,-166.0,-4.0,7.0,-8.0,2.2,5.9,-0.2,0.03,-0.87,0.36,0.32,0.0,0.0,0.0
1752860513001,199.0,-45.0,-163.0,-4.0,9.0,-7.0,3.6,6.8,-1.2,0.07,-0.82,0.4,0.4,0.0,0.0,0.0
1752860513040,202.0,-54.0,-154.0,-3.0,7.0,-6.0,5.0,4.6,-1.4,0.09,-0.78,0.42,0.46,0.0,0.0,0.0
1752860513075,202.0,-59.0,-142.0,-2.0,6.0,-6.0,6.0,2.4,-1.8,0.1,-0.73,0.43,0.52,0.0,0.0,0.0
1752860513216,198.0,-62.0,-111.0,2.0,6.0,-2.0,10.4,1.8,-0.1,0.11,-0.69,0.43,0.57,0.0,0.0,0.0
1752860513566,187.0,-52.0,-128.0,-7.0,7.0,-11.0,-2.3,-1.7,-3.5,0.09,-0.62,0.44,0.64,0.0,0.0,0.0
1752860513616,205.0,-8.0,-164.0,-2.0,1.0,-14.0,-0.7,-1.2,-4.2,-0.12,-0.97,0.21,0.09,0.0,0.0,0.0
1752860513657,195.0,-4.0,-164.0,-1.0,0.0,-15.0,-0.2,-2.6,-4.9,-0.13,-0.98,0.15,0.06,0.0,0.0,0.0
1752860513698,186.0,-2.0,-162.0,0.0,1.0,-13.0,0.5,-2.2,-3.7,-0.15,-0.99,0.07,0.03,0.0,0.0,0.0
1752860513833,169.0,3.0,-157.0,2.0,-1.0,-10.0,0.0,0.0,0.0,-0.17,-0.99,0.01,0.01,0.0,0.0,0.0
1752860513883,166.0,2.0,-156.0,2.0,-1.0,-9.0,1.1,-4.2,0.0,-0.2,-0.97,-0.11,-0.05,0.0,0.0,0.0
1752860514134,176.0,-1.0,-167.0,0.0,1.0,-11.0,0.3,-0.9,-1.3,-0.19,-0.97,-0.13,-0.04,0.0,0.0,0.0
1752860514167,182.0,-2.0,-168.0,-1.0,1.0,-11.0,-0.4,-1.1,-1.4,-0.11,-0.99,0.01,0.02,0.0,0.0,0.0
1752860514413,208.0,-14.0,-174.0,-6.0,4.0,-10.0,-0.8,3.3,-1.5,-0.09,-0.99,0.07,0.03,0.0,0.0,0.0
1752860514558,227.0,-59.0,-170.0,-4.0,7.0,-6.0,4.7,6.2,-1.2,0.1,-0.86,0.39,0.31,0.0,0.0,0.0
1752860514606,228.0,-65.0,-165.0,-3.0,8.0,-5.0,5.8,6.4,-1.1,0.22,-0.72,0.43,0.5,0.0,0.0,0.0
1752860514637,228.0,-70.0,-157.0,-3.0,8.0,-5.0,6.9,6.4,-2.1,0.24,-0.69,0.43,0.53,0.0,0.0,0.0
1752860514685,225.0,-73.0,-142.0,-2.0,7.0,-4.0,7.3,5.4,-1.8,0.24,-0.66,0.43,0.56,0.0,0.0,0.0
1752860514824,220.0,-73.0,-129.0,-1.0,4.0,-3.0,7.8,0.3,-1.3,0.23,-0.64,0.43,0.59,0.0,0.0,0.0
1752860515112,235.0,-23.0,-161.0,-5.0,4.0,-11.0,-1.8,0.8,-2.7,-0.04,-0.85,0.46,0.27,0.0,0.0,0.0
1752860515318,183.0,6.0,-161.0,2.0,0.0,-11.0,1.0,-2.6,-1.2,-0.08,-0.89,0.4,0.19,0.0,0.0,0.0
1752860515362,179.0,6.0,-160.0,3.0,-1.0,-10.0,1.5,-4.0,-1.3,-0.17,-0.98,-0.01,-0.06,0.0,0.0,0.0
1752860515405,175.0,6.0,-158.0,3.0,-0.0,-10.0,1.9,-4.0,-0.7,-0.18,-0.98,-0.04,-0.06,0.0,0.0,0.0
1752860515438,172.0,5.0,-158.0,2.0,-2.0,-10.0,1.4,-5.4,-1.1,-0.19,-0.98,-0.06,-0.06,0.0,0.0,0.0
1752860515488,171.0,4.0,-159.0,2.0,-1.0,-10.0,1.4,-4.3,-0.8,-0.18,-0.98,-0.08,-0.05,0.0,0.0,0.0
1752860515522,171.0,3.0,-160.0,2.0,0.0,-10.0,1.2,-3.1,-0.8,-0.17,-0.98,-0.08,-0.04,0.0,0.0,0.0
1752860515669,183.0,2.0,-162.0,0.0,1.0,-10.0,-0.2,-1.6,-0.8,-0.16,-0.98,-0.07,-0.04,0.0,0.0,0.0
1752860515706,190.0,1.0,-163.0,-2.0,-1.0,-11.0,0.0,0.0,0.0,-0.15,-0.99,0.07,-0.0,0.0,0.0,0.0
1752860515752,198.0,-3.0,-165.0,-3.0,-0.0,-12.0,-3.3,-2.8,-3.5,-0.12,-0.98,0.16,0.04,0.0,0.0,0.0
1752860515786,207.0,-8.0,-167.0,-5.0,-1.0,-13.0,-3.4,-2.9,-3.9,-0.09,-0.96,0.23,0.09,0.0,0.0,0.0
1752860515839,217.0,-18.0,-169.0,-7.0,1.0,-14.0,-3.2,-0.7,-4.6,-0.05,-0.94,0.3,0.16,0.0,0.0,0.0
1752860515886,225.0,-27.0,-170.0,-8.0,2.0,-13.0,-2.5,0.9,-4.6,0.0,-0.91,0.36,0.23,0.0,0.0,0.0
1752860516485,194.0,-52.0,-96.0,-1.0,5.0,-8.0,6.4,-0.8,-7.0,0.09,-0.49,0.51,0.7,0.0,0.0,0.0
1752860516523,191.0,-51.0,-122.0,-7.0,8.0,-14.0,0.5,3.1,-10.4,0.06,-0.59,0.53,0.6,0.0,0.0,0.0
1752860516777,206.0,-6.0,-163.0,-3.0,1.0,-13.0,-2.0,-1.1,-3.2,0.04,-0.7,0.52,0.5,0.0,0.0,0.0
1752860517027,165.0,-4.0,-154.0,0.0,1.0,-9.0,1.2,-3.4,-0.5,-0.23,-0.97,-0.13,0.01,0.0,0.0,0.0
1752860517065,160.0,-5.0,-154.0,0.0,0.0,-9.0,1.1,-3.3,-0.3,-0.23,-0.96,-0.16,0.01,0.0,0.0,0.0
1752860517104,156.0,-6.0,-155.0,0.0,1.0,-9.0,1.3,-2.7,0.3,-0.22,-0.95,-0.2,0.0,0.0,0.0,0.0
1752860517248,155.0,-6.0,-156.0,-1.0,1.0,-11.0,0.3,-2.3,-1.8,-0.21,-0.95,-0.21,0.01,0.0,0.0,0.0
1752860517289,169.0,-6.0,-159.0,-2.0,0.0,-12.0,-0.9,-3.0,-3.0,-0.19,-0.98,-0.11,0.04,0.0,0.0,0.0
1752860517325,178.0,-7.0,-160.0,-3.0,0.0,-12.0,-1.4,-3.2,-2.5,-0.18,-0.98,-0.04,0.05,0.0,0.0,0.0
1752860517478,216.0,-25.0,-162.0,-7.0,2.0,-16.0,-2.4,-0.9,-7.4,-0.16,-0.98,0.05,0.08,0.0,0.0,0.0
1752860517525,226.0,-34.0,-160.0,-7.0,3.0,-14.0,-0.9,0.0,-6.4,-0.02,-0.87,0.37,0.33,0.0,0.0,0.0
1752860517562,193.0,-45.0,-156.0,-7.0,5.0,-12.0,0.0,2.4,-6.3,0.03,-0.81,0.42,0.4,0.0,0.0,0.0
1752860517609,204.0,-54.0,-149.0,-8.0,7.0,-11.0,0.8,4.2,-6.6,0.1,-0.73,0.46,0.49,0.0,0.0,0.0
1752860517646,212.0,-62.0,-139.0,-7.0,7.0,-9.0,2.4,3.7,-6.3,0.16,-0.67,0.47,0.55,0.0,0.0,0.0
1752860517694,221.0,-71.0,-118.0,-5.0,8.0,-7.0,3.9,5.2,-6.1,0.21,-0.62,0.46,0.6,0.0,0.0,0.0
1752860517730,227.0,-75.0,-89.0,-5.0,9.0,-5.0,4.6,6.8,-5.2,0.27,-0.57,0.44,0.64,0.0,0.0,0.0
1752860517881,235.0,-66.0,-15.0,-2.0,5.0,1.0,6.7,4.4,-2.8,0.38,-0.46,0.31,0.74,0.0,0.0,0.0
1752860518128,228.0,-52.0,-17.0,5.0,6.0,2.0,10.5,2.8,-3.1,0.39,-0.43,0.29,0.76,0.0,0.0,0.0
1752860518172,211.0,-52.0,-45.0,1.0,7.0,-2.0,8.6,2.6,-5.5,0.22,-0.38,0.37,0.82,0.0,0.0,0.0
1752860518214,207.0,-55.0,-62.0,-1.0,9.0,-6.0,7.5,4.4,-8.3,0.19,-0.42,0.42,0.78,0.0,0.0,0.0
1752860518346,195.0,-52.0,-129.0,-8.0,9.0,-12.0,-0.6,4.3,-7.3,0.16,-0.46,0.46,0.74,0.0,0.0,0.0
1752860518399,187.0,-45.0,-143.0,-8.0,6.0,-10.0,-1.0,1.5,-4.2,0.04,-0.71,0.51,0.48,0.0,0.0,0.0
1752860518440,240.0,-35.0,-153.0,-6.0,6.0,-15.0,-1.1,2.2,-7.6,-0.01,-0.79,0.48,0.39,0.0,0.0,0.0
1752860518483,233.0,-27.0,-157.0,-6.0,2.0,-15.0,-1.8,-1.0,-6.4,-0.05,-0.84,0.44,0.31,0.0,0.0,0.0
1752860518517,226.0,-20.0,-159.0,-5.0,3.0,-15.0,-1.8,-0.8,-6.7,-0.08,-0.88,0.39,0.25,0.0,0.0,0.0
1752860518566,219.0,-13.0,-159.0,-3.0,1.0,-13.0,-1.4,-2.1,-4.1,-0.12,-0.91,0.34,0.18,0.0,0.0,0.0
1752860518616,212.0,-7.0,-158.0,-2.0,0.0,-12.0,-1.3,-3.1,-3.1,-0.16,-0.94,0.27,0.11,0.0,0.0,0.0
1752860518647,202.0,-3.0,-157.0,-1.0,2.0,-12.0,-0.6,-1.9,-2.9,-0.19,-0.96,0.2,0.07,0.0,0.0,0.0
1752860518690,193.0,-1.0,-153.0,-1.0,1.0,-12.0,-0.8,-3.2,-3.0,-0.22,-0.97,0.13,0.04,0.0,0.0,0.0
1752860518733,185.0,-0.0,-151.0,-0.0,1.0,-11.0,-0.4,-3.3,-2.9,-0.25,-0.97,0.06,0.02,0.0,0.0,0.0
1752860518868,166.0,-2.0,-149.0,1.0,1.0,-9.0,0.9,-4.1,-0.1,-0.26,-0.97,0.0,0.01,0.0,0.0,0.0
1752860518918,163.0,-3.0,-152.0,1.0,2.0,-10.0,1.3,-2.4,-2.5,-0.25,-0.96,-0.14,-0.01,0.0,0.0,0.0
1752860518968,162.0,-4.0,-154.0,1.0,3.0,-11.0,1.5,-1.3,-2.4,-0.23,-0.96,-0.15,0.0,0.0,0.0,0.0
1752860519001,165.0,-5.0,-156.0,0.0,3.0,-12.0,0.9,-0.9,-2.5,-0.21,-0.97,-0.14,0.01,0.0,0.0,0.0
1752860519035,169.0,-5.0,-157.0,-1.0,2.0,-11.0,0.1,-1.8,-2.0,-0.2,-0.97,-0.1,0.03,0.0,0.0,0.0
1752860519081,176.0,-6.0,-158.0,-2.0,1.0,-10.0,-0.9,-2.5,-1.4,-0.2,-0.98,-0.05,0.04,0.0,0.0,0.0
1752860519229,210.0,-17.0,-162.0,-6.0,1.0,-13.0,-3.1,-1.3,-3.8,-0.18,-0.98,0.02,0.06,0.0,0.0,0.0
1752860519382,202.0,-48.0,-158.0,-7.0,6.0,-12.0,0.6,4.0,-6.0,-0.06,-0.91,0.33,0.25,0.0,0.0,0.0
1752860519416,213.0,-56.0,-155.0,-7.0,8.0,-9.0,1.5,5.6,-5.2,0.14,-0.74,0.46,0.48,0.0,0.0,0.0
1752860519457,220.0,-65.0,-151.0,-7.0,8.0,-8.0,2.6,6.4,-5.0,0.19,-0.69,0.45,0.53,0.0,0.0,0.0
1752860519499,225.0,-73.0,-142.0,-6.0,9.0,-6.0,3.1,7.3,-4.3,0.24,-0.66,0.43,0.57,0.0,0.0,0.0
1752860519546,230.0,-82.0,-111.0,-6.0,8.0,-4.0,3.7,6.9,-4.1,0.28,-0.62,0.4,0.61,0.0,0.0,0.0
1752860519582,233.0,-83.0,-54.0,-6.0,7.0,-3.0,3.4,5.7,-4.1,0.32,-0.59,0.37,0.65,0.0,0.0,0.0
1752860519722,238.0,-74.0,10.0,-3.0,2.0,2.0,6.3,2.5,-1.3,0.34,-0.57,0.34,0.66,0.0,0.0,0.0
1752860519766,238.0,-70.0,8.0,-3.0,2.0,3.0,9.0,2.9,-2.4,0.39,-0.52,0.25,0.71,0.0,0.0,0.0
1752860519816,235.0,-66.0,2.0,-1.0,3.0,3.0,7.1,3.1,-0.8,0.39,-0.49,0.24,0.74,0.0,0.0,0.0
1752860519848,229.0,-60.0,-8.0,-3.0,5.0,4.0,5.6,4.0,-1.1,0.36,-0.45,0.24,0.78,0.0,0.0,0.0
1752860519899,227.0,-60.0,-15.0,-2.0,6.0,2.0,6.7,4.3,-2.2,0.35,-0.43,0.26,0.79,0.0,0.0,0.0
1752860519933,223.0,-63.0,-25.0,-2.0,6.0,1.0,7.0,4.2,-3.1,0.32,-0.45,0.29,0.78,0.0,0.0,0.0
1752860520300,237.0,-29.0,-158.0,-6.0,2.0,-16.0,-1.5,-1.0,-7.5,-0.02,-0.82,0.47,0.33,0.0,0.0,0.0
1752860521036,220.0,-12.0,-172.0,-5.0,1.0,-16.0,0.0,0.0,0.0,-0.04,-0.94,0.32,0.11,0.0,0.0,0.0
1752860521096,231.0,-24.0,-174.0,-5.0,3.0,-15.0,-0.6,2.2,-6.5,0.03,-0.89,0.41,0.19,0.0,0.0,0.0
1752860521226,237.0,-33.0,-174.0,-5.0,4.0,-14.0,3.5,5.9,-4.9,0.09,-0.85,0.45,0.26,0.0,0.0,0.0
1752860521380,241.0,-87.0,-2.0,-5.0,6.0,-0.0,5.1,5.9,-1.0,0.36,-0.59,0.38,0.61,0.0,0.0,0.0
1752860521412,243.0,-87.0,1.0,-3.0,6.0,-2.0,6.2,6.5,-1.7,0.38,-0.59,0.35,0.62,0.0,0.0,0.0
1752860521448,244.0,-85.0,3.0,-4.0,5.0,-1.0,6.4,4.7,-2.1,0.39,-0.6,0.33,0.62,0.0,0.0,0.0
1752860521490,243.0,-80.0,14.0,-4.0,4.0,0.0,5.3,4.1,-1.8,0.4,-0.57,0.31,0.65,0.0,0.0,0.0
1752860521541,241.0,-76.0,8.0,-2.0,2.0,-0.0,7.2,1.8,-2.8,0.4,-0.55,0.3,0.67,0.0,0.0,0.0
1752860521689,238.0,-72.0,-1.0,-4.0,2.0,3.0,7.4,3.3,-1.0,0.4,-0.52,0.29,0.7,0.0,0.0,0.0
1752860521725,220.0,-68.0,-44.0,-1.0,7.0,1.0,8.4,4.6,-0.9,0.27,-0.49,0.35,0.75,0.0,0.0,0.0
1752860521763,218.0,-69.0,-68.0,-4.0,6.0,2.0,4.6,2.2,0.5,0.24,-0.51,0.4,0.72,0.0,0.0,0.0
1752860521953,199.0,-49.0,-136.0,-2.0,7.0,-13.0,5.3,2.8,-8.3,0.09,-0.64,0.55,0.53,0.0,0.0,0.0
1752860521988,197.0,-43.0,-149.0,-3.0,6.0,-16.0,3.7,2.7,-9.6,0.07,-0.7,0.55,0.45,0.0,0.0,0.0
1752860524340,203.0,-15.0,-161.0,-5.0,1.0,-15.0,-2.6,-1.8,-6.2,-0.15,-0.96,0.18,0.14,0.0,0.0,0.0
1752860524490,218.0,-40.0,-169.0,-7.0,7.0,-11.0,-0.8,5.5,-3.5,-0.1,-0.95,0.23,0.21,0.0,0.0,0.0
1752860524531,203.0,-47.0,-170.0,-7.0,7.0,-8.0,0.2,5.7,-1.8,0.08,-0.86,0.32,0.4,0.0,0.0,0.0
1752860524675,221.0,-79.0,-172.0,-6.0,7.0,-3.0,4.4,6.4,-1.3,0.12,-0.82,0.32,0.45,0.0,0.0,0.0
1752860524725,223.0,-87.0,-179.0,-5.0,6.0,-1.0,5.4,5.9,-0.9,0.25,-0.67,0.27,0.64,0.0,0.0,0.0
1752860524758,224.0,-84.0,0.0,-7.0,5.0,1.0,3.0,4.9,0.4,0.28,-0.63,0.25,0.68,0.0,0.0,0.0
1752860524804,225.0,-83.0,3.0,-2.0,2.0,-0.0,7.7,2.8,-1.6,0.28,-0.63,0.23,0.68,0.0,0.0,0.0
1752860524942,221.0,-73.0,-18.0,-3.0,5.0,1.0,6.2,4.4,-1.4,0.29,-0.6,0.23,0.71,0.0,0.0,0.0
1752860524990,217.0,-73.0,-31.0,-3.0,7.0,2.0,6.5,4.9,-0.3,0.26,-0.54,0.28,0.75,0.0,0.0,0.0
1752860525033,213.0,-73.0,-46.0,-2.0,7.0,2.0,7.1,4.8,-0.1,0.22,-0.55,0.31,0.74,0.0,0.0,0.0
1752860525074,206.0,-69.0,-67.0,-1.0,8.0,0.0,9.1,6.5,-4.1,0.18,-0.55,0.34,0.74,0.0,0.0,0.0
1752860525132,199.0,-65.0,-78.0,1.0,8.0,-1.0,4.9,5.3,-0.5,0.12,-0.56,0.38,0.73,0.0,0.0,0.0
1752860525157,192.0,-59.0,-88.0,-2.0,7.0,-3.0,6.2,0.9,-2.0,0.08,-0.56,0.42,0.71,0.0,0.0,0.0
1752860525201,185.0,-54.0,-104.0,-1.0,6.0,-5.0,6.5,0.0,-3.5,0.04,-0.58,0.46,0.67,0.0,0.0,0.0
1752860525245,181.0,-50.0,-118.0,-2.0,6.0,-9.0,5.3,0.6,-5.5,0.01,-0.63,0.48,0.61,0.0,0.0,0.0
1752860525389,227.0,-27.0,-158.0,-7.0,4.0,-14.0,-2.6,1.0,-6.1,-0.06,-0.86,0.4,0.31,0.0,0.0,0.0
1752860525646,218.0,-18.0,-162.0,-2.0,-1.0,-12.0,-1.1,-4.0,-2.3,-0.08,-0.91,0.33,0.22,0.0,0.0,0.0
1752860525688,178.0,-1.0,-159.0,-1.0,-1.0,-11.0,-0.4,-4.2,-1.6,-0.19,-0.98,-0.02,0.01,0.0,0.0,0.0
1752860525735,175.0,-2.0,-158.0,-1.0,-2.0,-10.0,-0.3,-5.2,-0.9,-0.19,-0.98,-0.04,0.01,0.0,0.0,0.0
1752860525871,177.0,-3.0,-163.0,-0.0,2.0,-11.0,-0.0,-1.1,-2.0,-0.15,-0.99,-0.03,0.02,0.0,0.0,0.0
1752860525912,181.0,-3.0,-164.0,-1.0,2.0,-12.0,-0.4,-0.8,-1.7,-0.14,-0.99,0.01,0.03,0.0,0.0,0.0
1752860526055,206.0,-9.0,-170.0,-4.0,1.0,-12.0,-2.4,-0.7,-2.6,-0.12,-0.99,0.06,0.03,0.0,0.0,0.0
1752860526105,213.0,-14.0,-172.0,-5.0,3.0,-12.0,-2.2,1.5,-3.0,-0.04,-0.95,0.27,0.12,0.0,0.0,0.0
1752860526238,229.0,-40.0,-172.0,-6.0,6.0,-11.0,0.7,5.4,-3.0,-0.01,-0.93,0.32,0.17,0.0,0.0,0.0
1752860526486,228.0,-88.0,-2.0,-4.0,6.0,-2.0,5.6,5.5,-2.4,0.29,-0.63,0.31,0.65,0.0,0.0,0.0
1752860526539,227.0,-87.0,-1.0,-2.0,3.0,-3.0,6.7,5.9,-2.3,0.29,-0.63,0.29,0.66,0.0,0.0,0.0
1752860526574,225.0,-84.0,-2.0,-4.0,4.0,-1.0,6.0,3.1,-1.6,0.28,-0.61,0.28,0.69,0.0,0.0,0.0
1752860526623,223.0,-80.0,-23.0,-4.0,3.0,0.0,6.3,2.3,-0.8,0.28,-0.59,0.27,0.71,0.0,0.0,0.0
1752860526657,220.0,-78.0,-31.0,-3.0,4.0,1.0,6.9,2.4,-0.7,0.26,-0.57,0.28,0.72,0.0,0.0,0.0
1752860526707,217.0,-76.0,-42.0,-3.0,4.0,2.0,7.5,2.3,-0.4,0.25,-0.57,0.29,0.73,0.0,0.0,0.0
1752860526754,213.0,-74.0,-57.0,-1.0,7.0,-0.0,7.9,4.8,-1.5,0.22,-0.56,0.32,0.73,0.0,0.0,0.0
1752860526891,210.0,-72.0,-73.0,-1.0,8.0,-0.0,3.8,1.5,-4.4,0.2,-0.56,0.35,0.72,0.0,0.0,0.0
1752860526941,194.0,-57.0,-116.0,-4.0,7.0,-8.0,4.3,2.4,-4.7,0.07,-0.63,0.47,0.61,0.0,0.0,0.0
1752860527083,189.0,-51.0,-134.0,-4.0,8.0,-8.0,0.2,0.2,-5.7,0.05,-0.68,0.49,0.55,0.0,0.0,0.0
1752860527138,230.0,-26.0,-161.0,-5.0,3.0,-16.0,-1.1,-0.1,-7.4,-0.04,-0.87,0.41,0.27,0.0,0.0,0.0
1752860527364,178.0,6.0,-162.0,1.0,0.0,-9.0,0.0,0.0,0.0,-0.16,-0.99,-0.0,-0.06,0.0,0.0,0.0
1752860528079,222.0,-28.0,-176.0,-7.0,5.0,-9.0,1.9,4.5,-3.3,0.06,-0.9,0.35,0.24,0.0,0.0,0.0
1752860528113,230.0,-62.0,-172.0,-6.0,5.0,-7.0,3.8,3.9,-3.1,0.22,-0.75,0.42,0.47,0.0,0.0,0.0
1752860528256,232.0,-83.0,-63.0,-1.0,7.0,-2.0,8.3,5.4,-3.3,0.26,-0.7,0.41,0.53,0.0,0.0,0.0
1752860528307,229.0,-79.0,-47.0,-1.0,6.0,-2.0,8.4,4.3,-3.6,0.31,-0.56,0.36,0.68,0.0,0.0,0.0
1752860528550,196.0,-57.0,-120.0,-4.0,7.0,-6.0,3.9,1.9,-3.3,0.3,-0.54,0.36,0.7,0.0,0.0,0.0
1752860528591,189.0,-50.0,-131.0,-4.0,7.0,-8.0,3.6,2.4,-3.0,0.04,-0.68,0.5,0.54,0.0,0.0,0.0
1752860528635,182.0,-44.0,-140.0,-3.0,7.0,-9.0,3.8,2.4,-4.3,0.01,-0.72,0.51,0.47,0.0,0.0,0.0
1752860528995,173.0,5.0,-164.0,0.0,1.0,-8.0,-0.7,-1.2,0.9,-0.13,-0.99,-0.06,-0.05,0.0,0.0,0.0
1752860529147,145.0,-2.0,-167.0,1.0,0.0,-10.0,1.4,-1.4,-0.7,-0.13,-0.98,-0.14,-0.05,0.0,0.0,0.0
1752860529186,142.0,-4.0,-168.0,1.0,-0.0,-11.0,1.7,-2.0,-1.0,-0.11,-0.94,-0.33,-0.0,0.0,0.0,0.0
1752860529220,141.0,-4.0,-168.0,1.0,0.0,-10.0,2.0,-1.6,-0.5,-0.11,-0.94,-0.33,-0.0,0.0,0.0,0.0
1752860529261,144.0,-3.0,-168.0,1.0,0.0,-9.0,1.8,-2.1,0.2,-0.11,-0.94,-0.32,-0.01,0.0,0.0,0.0
1752860529302,149.0,-1.0,-167.0,1.0,-1.0,-10.0,1.1,-2.8,-0.5,-0.11,-0.95,-0.28,-0.02,0.0,0.0,0.0
1752860529441,179.0,2.0,-167.0,-2.0,-0.0,-12.0,-1.8,-2.5,-2.7,-0.11,-0.97,-0.22,-0.03,0.0,0.0,0.0
1752860529491,193.0,-2.0,-167.0,-3.0,0.0,-15.0,-1.8,-2.0,-5.6,-0.11,-0.99,0.09,0.02,0.0,0.0,0.0
1752860529744,210.0,-54.0,-166.0,-5.0,9.0,-9.0,3.3,7.4,-3.3,0.12,-0.8,0.38,0.44,0.0,0.0,0.0
1752860529776,216.0,-63.0,-163.0,-5.0,8.0,-7.0,3.6,6.0,-3.7,0.17,-0.76,0.37,0.51,0.0,0.0,0.0
1752860529852,224.0,-83.0,-139.0,-3.0,7.0,-4.0,6.5,6.1,-3.0,0.24,-0.67,0.34,0.61,0.0,0.0,0.0
1752860530002,228.0,-76.0,0.0,1.0,5.0,-3.0,9.2,2.6,-2.2,0.28,-0.63,0.32,0.65,0.0,0.0,0.0
1752860530045,228.0,-75.0,0.0,-3.0,3.0,1.0,6.6,3.1,-2.0,0.32,-0.56,0.25,0.73,0.0,0.0,0.0
1752860530195,219.0,-72.0,-45.0,-2.0,7.0,-0.0,7.3,5.0,-2.3,0.31,-0.54,0.25,0.74,0.0,0.0,0.0
1752860530229,216.0,-72.0,-68.0,-2.0,7.0,-2.0,7.4,4.2,-3.0,0.23,-0.55,0.37,0.71,0.0,0.0,0.0
1752860530279,211.0,-70.0,-92.0,-1.0,7.0,-4.0,9.5,3.0,-4.8,0.19,-0.58,0.41,0.68,0.0,0.0,0.0
1752860530312,206.0,-65.0,-113.0,-2.0,8.0,-8.0,6.5,4.0,-5.5,0.16,-0.6,0.45,0.64,0.0,0.0,0.0
1752860530362,203.0,-60.0,-126.0,-4.0,10.0,-11.0,4.1,6.8,-8.0,0.12,-0.64,0.47,0.6,0.0,0.0,0.0
1752860530513,230.0,-31.0,-156.0,-6.0,3.0,-13.0,-1.6,-1.1,-5.6,-0.04,-0.84,0.41,0.35,0.0,0.0,0.0
1752860530559,220.0,-21.0,-158.0,-5.0,2.0,-15.0,-2.2,-1.7,-6.3,-0.1,-0.9,0.35,0.25,0.0,0.0,0.0
1752860530697,190.0,3.0,-159.0,0.0,2.0,-8.0,-0.2,-2.0,1.5,-0.13,-0.93,0.29,0.18,0.0,0.0,0.0
1752860530748,183.0,7.0,-158.0,1.0,-1.0,-10.0,0.1,-4.2,-1.3,-0.19,-0.98,0.02,-0.05,0.0,0.0,0.0
1752860530791,175.0,7.0,-158.0,1.0,-0.0,-11.0,0.0,-4.0,-2.2,-0.19,-0.98,-0.03,-0.07,0.0,0.0,0.0
1752860530841,171.0,6.0,-159.0,1.0,-0.0,-11.0,-0.0,-4.3,-1.6,-0.18,-0.98,-0.07,-0.07,0.0,0.0,0.0
1752860530875,169.0,5.0,-160.0,1.0,-1.0,-11.0,0.1,-4.6,-1.2,-0.17,-0.98,-0.1,-0.06,0.0,0.0,0.0
1752860530915,168.0,4.0,-161.0,1.0,-1.0,-11.0,0.4,-4.4,-2.0,-0.16,-0.98,-0.1,-0.05,0.0,0.0,0.0
1752860530958,170.0,3.0,-163.0,1.0,0.0,-11.0,0.7,-2.4,-2.0,-0.15,-0.98,-0.09,-0.04,0.0,0.0,0.0
1752860531103,191.0,-0.0,-168.0,-1.0,2.0,-13.0,-0.6,-0.6,-3.2,-0.13,-0.99,-0.07,-0.03,0.0,0.0,0.0
1752860531153,200.0,-2.0,-168.0,-1.0,1.0,-12.0,-0.6,-0.8,-2.1,-0.1,-0.98,0.17,0.04,0.0,0.0,0.0
1752860531193,212.0,-8.0,-168.0,-3.0,2.0,-12.0,-1.1,0.3,-2.4,-0.08,-0.95,0.27,0.09,0.0,0.0,0.0
1752860531248,222.0,-16.0,-169.0,-4.0,3.0,-11.0,-1.3,1.5,-2.4,-0.05,-0.93,0.34,0.15,0.0,0.0,0.0
1752860531582,209.0,-50.0,-162.0,-4.0,6.0,-0.0,0.0,0.0,0.0,0.11,-0.78,0.44,0.43,0.0,0.0,0.0
1752860531727,222.0,-75.0,-20.0,-3.0,3.0,1.0,6.4,2.5,-1.2,0.3,-0.59,0.3,0.69,0.0,0.0,0.0
1752860531769,220.0,-73.0,-27.0,-3.0,4.0,1.0,6.5,2.4,-1.1,0.27,-0.54,0.28,0.75,0.0,0.0,0.0
1752860531804,217.0,-73.0,-36.0,-2.0,3.0,2.0,7.2,1.3,-0.7,0.26,-0.54,0.29,0.75,0.0,0.0,0.0
1752860532159,191.0,-56.0,-121.0,-3.0,7.0,-8.0,1.5,2.7,-4.4,0.24,-0.53,0.31,0.75,0.0,0.0,0.0
1752860532210,235.0,-32.0,-154.0,-3.0,7.0,-13.0,0.7,3.6,-6.1,-0.04,-0.83,0.43,0.34,0.0,0.0,0.0
1752860532244,227.0,-22.0,-159.0,-5.0,6.0,-13.0,0.0,0.0,0.0,-0.08,-0.89,0.38,0.25,0.0,0.0,0.0
1752860532295,218.0,-12.0,-161.0,-4.0,4.0,-12.0,-1.9,-0.2,-1.5,-0.11,-0.92,0.33,0.17,0.0,0.0,0.0
1752860532345,211.0,-6.0,-159.0,-2.0,3.0,-10.0,-0.8,-0.3,-1.1,-0.16,-0.95,0.26,0.09,0.0,0.0,0.0
1752860532474,181.0,5.0,-153.0,0.0,2.0,-10.0,-0.8,-2.1,-0.8,-0.18,-0.96,0.2,0.05,0.0,0.0,0.0
1752860532520,174.0,5.0,-151.0,-1.0,0.0,-10.0,-1.6,-4.3,-1.9,-0.24,-0.97,-0.03,-0.06,0.0,0.0,0.0
