timestamp,heading,roll,pitch,acc_x,acc_y,acc_z,lin_acc_x,lin_acc_y,lin_acc_z,quat_w,quat_x,quat_y,quat_z,mag_x,mag_y,mag_z,temperature
1752776005379,0.0,0.0,0.0,0.0,0.0,9.81,0.0,0.0,0.0,1.0,0.0,0.0,0.0,0.0,0.0,0.0,0.0
1752776005520,359.81,-11.69,-113.69,0.13,-0.41,0.09,0.0,0.0,0.0,1.0,0.0,0.0,0.0,0.0,0.0,0.0,30.0
1752776005558,359.81,-11.69,-113.69,0.11,-0.38,0.06,0.0,0.0,0.0,1.0,0.0,0.0,0.0,0.0,0.0,0.0,30.0
1752776005599,359.81,-11.69,-113.69,0.1,-0.4,0.09,0.0,0.0,0.0,1.0,0.0,0.0,0.0,0.0,0.0,0.0,30.0
1752776005841,0.81,-11.81,-113.56,0.12,-0.4,0.1,0.0,0.0,0.0,1.0,0.0,0.0,0.0,0.0,0.0,0.0,30.0
1752776005881,0.81,-11.81,-113.56,0.11,-0.38,0.1,0.0,0.0,0.0,1.0,0.0,0.0,0.0,0.0,0.0,0.0,30.0
1752776005921,0.81,-11.81,-113.5,0.09,-0.33,0.11,0.0,0.0,0.0,1.0,0.0,0.0,0.0,0.0,0.0,0.0,30.0
1752776005959,0.81,-11.81,-113.56,0.1,-0.38,0.11,0.0,0.0,0.0,1.0,0.0,0.0,0.0,0.0,0.0,0.0,30.0
1752776006000,0.88,-11.81,-113.56,0.11,-0.35,0.12,0.0,0.0,0.0,1.0,0.0,0.0,0.0,0.0,0.0,0.0,30.0
1752776006038,0.88,-11.88,-113.56,0.11,-0.37,0.07,0.0,0.0,0.0,1.0,0.0,0.0,0.0,0.0,0.0,0.0,30.0
1752776006073,0.81,-11.81,-113.56,0.11,-0.4,0.09,0.0,0.0,0.0,1.0,0.0,0.0,0.0,0.0,0.0,0.0,30.0
1752776006110,0.69,-11.75,-113.69,0.12,-0.39,0.06,0.0,0.0,0.0,1.0,0.0,0.0,0.0,0.0,0.0,0.0,30.0
1752776006152,0.44,-11.69,-113.81,0.2,-0.53,-0.46,0.0,0.0,0.0,1.0,0.0,0.0,0.0,0.0,0.0,0.0,30.0
1752776006192,0.44,-11.69,-113.81,0.2,-0.38,-0.07,0.0,0.0,0.0,1.0,0.0,0.0,0.0,0.0,0.0,0.0,30.0
1752776006230,0.38,-11.69,-113.81,0.03,-0.36,0.19,0.0,0.0,0.0,1.0,0.0,0.0,0.0,0.0,0.0,0.0,30.0
1752776006273,0.38,-11.69,-113.81,0.08,-0.36,0.17,0.0,0.0,0.0,1.0,0.0,0.0,0.0,0.0,0.0,0.0,30.0
1752776006310,0.38,-11.69,-113.81,0.08,-0.37,0.14,0.0,0.0,0.0,1.0,0.0,0.0,0.0,0.0,0.0,0.0,30.0
1752776006350,0.38,-11.69,-113.81,0.13,-0.38,0.06,0.0,0.0,0.0,1.0,0.0,0.0,0.0,0.0,0.0,0.0,30.0
1752776006389,0.38,-11.69,-113.81,0.1,-0.38,0.12,0.0,0.0,0.0,1.0,0.0,0.0,0.0,0.0,0.0,0.0,30.0
1752776006423,0.38,-11.69,-113.81,0.1,-0.36,0.08,0.0,0.0,0.0,1.0,0.0,0.0,0.0,0.0,0.0,0.0,30.0
1752776006463,0.38,-11.69,-113.81,0.09,-0.37,0.11,0.0,0.0,0.0,1.0,0.0,0.0,0.0,0.0,0.0,0.0,30.0
1752776006501,0.38,-11.69,-113.81,0.09,-0.37,0.11,0.0,0.0,0.0,1.0,0.0,0.0,0.0,0.0,0.0,0.0,30.0
1752776006541,0.38,-11.69,-113.81,0.09,-0.36,0.1,0.0,0.0,0.0,1.0,0.0,0.0,0.0,0.0,0.0,0.0,30.0
1752776006581,0.38,-11.69,-113.81,0.08,-0.35,0.14,0.0,0.0,0.0,1.0,0.0,0.0,0.0,0.0,0.0,0.0,30.0
1752776006716,0.38,-11.69,-113.81,0.01,-0.04,-0.07,0.0,0.0,0.0,1.0,0.0,0.0,0.0,0.0,0.0,0.0,30.0
1752776006752,0.38,-11.69,-113.81,0.02,-0.03,-0.05,0.0,0.0,0.0,1.0,0.0,0.0,0.0,0.0,0.0,0.0,30.0
1752776006791,0.38,-11.69,-113.81,0.01,0.0,-0.04,0.0,0.0,0.0,1.0,0.0,0.0,0.0,0.0,0.0,0.0,30.0
1752776006932,0.38,-11.69,-113.81,0.03,-0.03,-0.06,0.0,0.0,0.0,1.0,0.0,0.0,0.0,0.0,0.0,0.0,30.0
1752776006964,0.38,-11.69,-113.81,0.02,-0.03,-0.03,0.0,0.0,0.0,1.0,0.0,0.0,0.0,0.0,0.0,0.0,30.0
1752776007003,0.38,-11.69,-113.81,0.03,-0.01,-0.02,0.0,0.0,0.0,1.0,0.0,0.0,0.0,0.0,0.0,0.0,30.0
1752776007041,0.38,-11.69,-113.81,0.02,0.0,-0.04,0.0,0.0,0.0,1.0,0.0,0.0,0.0,0.0,0.0,0.0,30.0
1752776007075,0.38,-11.69,-113.81,0.02,-0.02,-0.03,0.0,0.0,0.0,1.0,0.0,0.0,0.0,0.0,0.0,0.0,30.0
1752776007211,0.38,-11.69,-113.81,0.05,-0.02,-0.02,0.0,0.0,0.0,1.0,0.0,0.0,0.0,0.0,0.0,0.0,30.0
1752776007244,0.38,-11.69,-113.81,0.01,-0.02,-0.04,0.0,0.0,0.0,1.0,0.0,0.0,0.0,0.0,0.0,0.0,30.0
1752776007286,0.38,-11.69,-113.81,0.01,-0.03,-0.04,0.0,0.0,0.0,1.0,0.0,0.0,0.0,0.0,0.0,0.0,30.0
1752776007318,0.38,-11.69,-113.81,0.02,-0.03,-0.03,0.0,0.0,0.0,1.0,0.0,0.0,0.0,0.0,0.0,0.0,30.0
1752776007359,0.38,-11.69,-113.81,0.06,0.0,-0.05,0.0,0.0,0.0,1.0,0.0,0.0,0.0,0.0,0.0,0.0,30.0
1752776007392,0.38,-11.69,-113.81,0.03,-0.01,-0.01,0.0,0.0,0.0,1.0,0.0,0.0,0.0,0.0,0.0,0.0,30.0
1752776007426,0.38,-11.69,-113.81,0.01,-0.01,-0.02,0.0,0.0,0.0,1.0,0.0,0.0,0.0,0.0,0.0,0.0,30.0
1752776007564,0.38,-11.69,-113.81,0.01,-0.01,-0.03,0.0,0.0,0.0,1.0,0.0,0.0,0.0,0.0,0.0,0.0,30.0
1752776007604,0.38,-11.69,-113.81,0.0,0.0,-0.03,0.0,0.0,0.0,1.0,0.0,0.0,0.0,0.0,0.0,0.0,30.0
1752776007643,0.38,-11.69,-113.81,0.02,-0.03,-0.05,0.0,0.0,0.0,1.0,0.0,0.0,0.0,0.0,0.0,0.0,30.0
1752776007677,0.38,-11.69,-113.81,0.0,-0.02,-0.04,0.0,0.0,0.0,1.0,0.0,0.0,0.0,0.0,0.0,0.0,30.0
1752776007714,0.38,-11.69,-113.81,0.02,-0.04,-0.04,0.0,0.0,0.0,1.0,0.0,0.0,0.0,0.0,0.0,0.0,30.0
1752776007755,0.38,-11.69,-113.81,0.03,-0.02,-0.01,0.0,0.0,0.0,1.0,0.0,0.0,0.0,0.0,0.0,0.0,30.0
1752776007793,0.25,-11.63,-113.88,0.0,0.01,-0.01,0.0,0.0,0.0,1.0,0.0,0.0,0.0,0.0,0.0,0.0,30.0
1752776007928,359.31,-11.31,-114.19,-0.22,0.1,0.22,0.0,0.0,0.0,1.0,0.0,0.0,0.0,0.0,0.0,0.0,30.0
1752776007967,359.31,-11.31,-114.19,0.04,-0.04,-0.07,0.0,0.0,0.0,1.0,0.0,0.0,0.0,0.0,0.0,0.0,30.0
1752776008008,359.13,-11.31,-114.38,0.04,0.11,0.0,0.0,0.0,0.0,1.0,0.0,0.0,0.0,0.0,0.0,0.0,30.0
1752776008150,359.06,-11.25,-114.81,-0.01,-0.01,0.0,0.0,0.0,0.0,1.0,0.0,0.0,0.0,0.0,0.0,0.0,30.0
1752776008285,359.13,-11.38,-115.31,0.02,-0.01,0.0,0.0,0.0,0.0,1.0,0.0,0.0,0.0,0.0,0.0,0.0,30.0
1752776008418,359.38,-11.69,-115.44,0.06,-0.12,-0.06,0.0,0.0,0.0,1.0,0.0,0.0,0.0,0.0,0.0,0.0,30.0
1752776008459,359.38,-11.69,-115.56,0.05,-0.01,-0.08,0.0,0.0,0.0,1.0,0.0,0.0,0.0,0.0,0.0,0.0,30.0
1752776008499,359.44,-11.81,-115.56,0.0,0.0,-0.08,0.0,0.0,0.0,1.0,0.0,0.0,0.0,0.0,0.0,0.0,30.0
1752776008636,359.31,-12.0,-115.56,0.06,-0.18,-0.03,0.0,0.0,0.0,1.0,0.0,0.0,0.0,0.0,0.0,0.0,30.0
1752776008680,359.25,-12.06,-115.56,0.05,-0.04,-0.06,0.0,0.0,0.0,1.0,0.0,0.0,0.0,0.0,0.0,0.0,30.0
1752776008820,359.56,-12.38,-115.81,0.1,0.02,-0.15,0.0,0.0,0.0,1.0,0.0,0.0,0.0,0.0,0.0,0.0,30.0
1752776008860,359.31,-12.25,-116.06,-0.18,-0.03,0.02,0.0,0.0,0.0,1.0,0.0,0.0,0.0,0.0,0.0,0.0,30.0
1752776008900,359.31,-12.31,-116.13,-0.01,0.04,-0.02,0.0,0.0,0.0,1.0,0.0,0.0,0.0,0.0,0.0,0.0,30.0
1752776008938,359.38,-12.38,-116.13,-0.01,-0.03,0.01,0.0,0.0,0.0,1.0,0.0,0.0,0.0,0.0,0.0,0.0,30.0
1752776009070,358.81,-12.19,-116.69,0.08,0.0,-0.16,0.0,0.0,0.0,1.0,0.0,0.0,0.0,0.0,0.0,0.0,30.0
1752776009111,359.25,-12.5,-116.38,0.03,-0.1,0.0,0.0,0.0,0.0,1.0,0.0,0.0,0.0,0.0,0.0,0.0,30.0
1752776009151,359.19,-12.5,-116.38,0.22,0.01,-0.04,0.0,0.0,0.0,1.0,0.0,0.0,0.0,0.0,0.0,0.0,30.0
1752776009191,358.94,-12.44,-116.63,0.07,0.27,0.2,0.0,0.0,0.0,1.0,0.0,0.0,0.0,0.0,0.0,0.0,30.0
1752776009356,359.25,-12.75,-116.5,-0.04,0.01,0.03,0.0,0.0,0.0,1.0,0.0,0.0,0.0,0.0,0.0,0.0,30.0
1752776009469,0.56,-13.81,-115.44,-0.17,0.57,0.31,0.0,0.0,0.0,1.0,0.0,0.0,0.0,0.0,0.0,0.0,30.0
1752776009509,1.0,-14.5,-115.0,0.02,-0.06,0.0,0.0,0.0,0.0,1.0,0.0,0.0,0.0,0.0,0.0,0.0,30.0
1752776009548,0.69,-14.38,-115.38,0.27,-0.39,-0.16,0.0,0.0,0.0,1.0,0.0,0.0,0.0,0.0,0.0,0.0,30.0
1752776009581,0.56,-14.31,-115.5,0.05,-0.12,0.0,0.0,0.0,0.0,1.0,0.0,0.0,0.0,0.0,0.0,0.0,30.0
1752776009714,0.81,-14.19,-115.94,0.01,0.06,-0.11,0.0,0.0,0.0,1.0,0.0,0.0,0.0,0.0,0.0,0.0,30.0
1752776009753,1.19,-14.5,-115.75,0.03,0.17,-0.19,0.0,0.0,0.0,1.0,0.0,0.0,0.0,0.0,0.0,0.0,30.0
1752776009789,1.31,-14.56,-115.75,0.04,-0.23,0.08,0.0,0.0,0.0,1.0,0.0,0.0,0.0,0.0,0.0,0.0,30.0
1752776009935,1.94,-14.81,-115.63,0.06,-0.03,-0.02,0.0,0.0,0.0,1.0,0.0,0.0,0.0,0.0,0.0,0.0,30.0
1752776009971,2.19,-15.0,-115.44,0.0,0.01,0.02,0.0,0.0,0.0,1.0,0.0,0.0,0.0,0.0,0.0,0.0,30.0
1752776010011,2.25,-15.0,-115.44,0.09,-0.07,-0.15,0.0,0.0,0.0,1.0,0.0,0.0,0.0,0.0,0.0,0.0,30.0
1752776010053,2.31,-15.06,-115.44,-0.03,0.09,0.07,0.0,0.0,0.0,1.0,0.0,0.0,0.0,0.0,0.0,0.0,30.0
1752776010392,2.38,-15.13,-115.31,-0.04,0.09,0.15,0.0,0.0,0.0,1.0,0.0,0.0,0.0,0.0,0.0,0.0,30.0
1752776010424,2.44,-15.13,-115.38,0.07,0.03,-0.19,0.0,0.0,0.0,1.0,0.0,0.0,0.0,0.0,0.0,0.0,30.0
1752776010464,2.44,-15.13,-115.38,0.06,-0.14,-0.01,0.0,0.0,0.0,1.0,0.0,0.0,0.0,0.0,0.0,0.0,30.0
1752776010505,2.44,-15.13,-115.31,0.02,0.04,-0.06,0.0,0.0,0.0,1.0,0.0,0.0,0.0,0.0,0.0,0.0,30.0
1752776010752,2.25,-14.88,-115.63,0.07,-0.08,-0.12,0.0,0.0,0.0,1.0,0.0,0.0,0.0,0.0,0.0,0.0,30.0
1752776010894,2.06,-14.69,-115.88,0.02,0.02,-0.08,0.0,0.0,0.0,1.0,0.0,0.0,0.0,0.0,0.0,0.0,30.0
1752776010937,2.06,-14.69,-115.88,0.04,-0.02,-0.11,0.0,0.0,0.0,1.0,0.0,0.0,0.0,0.0,0.0,0.0,30.0
1752776011074,2.38,-14.94,-115.63,0.09,-0.11,-0.12,0.0,0.0,0.0,1.0,0.0,0.0,0.0,0.0,0.0,0.0,30.0
1752776011112,2.5,-15.06,-115.56,-0.08,0.43,-0.14,0.0,0.0,0.0,1.0,0.0,0.0,0.0,0.0,0.0,0.0,30.0
1752776011152,3.38,-15.63,-115.44,-0.11,0.49,-0.21,0.0,0.0,0.0,1.0,0.0,0.0,0.0,0.0,0.0,0.0,30.0
1752776011186,3.75,-15.88,-115.94,-0.08,1.4,-0.22,0.0,0.0,0.0,1.0,0.0,0.0,0.0,0.0,0.0,0.0,30.0
1752776011222,6.75,-16.94,-118.75,-0.03,2.31,-0.86,0.0,0.0,0.0,1.0,0.0,0.0,0.0,0.0,0.0,0.0,30.0
1752776011256,14.13,-19.63,-123.19,0.01,2.75,-1.38,0.0,0.0,0.0,1.0,0.0,0.0,0.0,0.0,0.0,0.0,30.0
1752776011292,25.38,-25.63,-126.06,-0.36,3.81,-0.56,0.0,0.0,0.0,1.0,0.0,0.0,0.0,0.0,0.0,0.0,30.0
1752776011324,33.38,-28.75,-129.94,0.61,1.19,-1.57,0.0,0.0,0.0,1.0,0.0,0.0,0.0,0.0,0.0,0.0,30.0
1752776011465,53.75,-38.0,-136.94,-0.79,0.77,-1.27,0.0,0.0,0.0,1.0,0.0,0.0,0.0,0.0,0.0,0.0,30.0
1752776011505,61.19,-41.88,-137.56,-0.03,0.34,-1.68,0.0,0.0,0.0,1.0,0.0,0.0,0.0,0.0,0.0,0.0,30.0
1752776011544,70.13,-44.69,-141.38,-0.16,0.38,0.89,0.0,0.0,0.0,1.0,0.0,0.0,0.0,0.0,0.0,0.0,30.0
1752776011577,78.38,-46.69,-145.81,-0.47,1.19,1.76,0.0,0.0,0.0,1.0,0.0,0.0,0.0,0.0,0.0,0.0,30.0
1752776011615,86.38,-47.56,-151.44,-2.55,0.08,0.65,0.0,0.0,0.0,1.0,0.0,0.0,0.0,0.0,0.0,0.0,30.0
1752776011654,88.94,-47.5,-154.06,-2.33,-0.07,-1.1,0.0,0.0,0.0,1.0,0.0,0.0,0.0,0.0,0.0,0.0,30.0
1752776011688,88.44,-46.31,-154.94,-0.04,-0.61,1.23,0.0,0.0,0.0,1.0,0.0,0.0,0.0,0.0,0.0,0.0,30.0
1752776011825,95.06,-44.0,-161.56,1.8,-1.2,1.77,0.0,0.0,0.0,1.0,0.0,0.0,0.0,0.0,0.0,0.0,30.0
1752776011866,97.69,-43.25,-163.38,0.41,0.04,0.82,0.0,0.0,0.0,1.0,0.0,0.0,0.0,0.0,0.0,0.0,30.0
1752776011908,101.13,-43.81,-164.81,-0.02,0.28,-0.18,0.0,0.0,0.0,1.0,0.0,0.0,0.0,0.0,0.0,0.0,30.0
1752776011945,108.75,-44.19,-168.5,0.83,0.88,1.5,0.0,0.0,0.0,1.0,0.0,0.0,0.0,0.0,0.0,0.0,30.0
1752776011978,111.69,-44.44,-169.94,1.04,0.27,1.27,0.0,0.0,0.0,1.0,0.0,0.0,0.0,0.0,0.0,0.0,30.0
1752776012016,112.94,-45.25,-171.13,-0.43,0.52,-1.36,0.0,0.0,0.0,1.0,0.0,0.0,0.0,0.0,0.0,0.0,30.0
1752776012054,99.44,-44.88,-163.0,-0.66,-0.99,-0.02,0.0,0.0,0.0,1.0,0.0,0.0,0.0,0.0,0.0,0.0,30.0
1752776012088,135.81,-40.56,-168.0,-5.42,8.62,1.96,0.0,0.0,0.0,1.0,0.0,0.0,0.0,0.0,0.0,0.0,30.0
1752776012124,137.94,-33.31,-171.13,-0.32,-1.94,0.55,0.0,0.0,0.0,1.0,0.0,0.0,0.0,0.0,0.0,0.0,30.0
1752776012158,141.06,-25.25,-173.13,0.76,1.2,3.4,0.0,0.0,0.0,1.0,0.0,0.0,0.0,0.0,0.0,0.0,30.0
1752776012197,141.25,-14.06,-176.94,-0.17,3.58,0.99,0.0,0.0,0.0,1.0,0.0,0.0,0.0,0.0,0.0,0.0,30.0
1752776012228,138.31,-6.94,179.31,-0.15,3.22,-0.12,0.0,0.0,0.0,1.0,0.0,0.0,0.0,0.0,0.0,0.0,30.0
1752776012368,104.38,-2.63,162.19,1.73,3.1,-2.37,0.0,0.0,0.0,1.0,0.0,0.0,0.0,0.0,0.0,0.0,30.0
1752776012408,101.0,-2.56,159.69,2.5,-3.77,2.77,0.0,0.0,0.0,1.0,0.0,0.0,0.0,0.0,0.0,0.0,30.0
1752776012447,101.63,-3.44,159.5,1.55,-2.2,0.05,0.0,0.0,0.0,1.0,0.0,0.0,0.0,0.0,0.0,0.0,30.0
1752776012478,103.19,-5.44,159.25,1.75,-0.55,-0.36,0.0,0.0,0.0,1.0,0.0,0.0,0.0,0.0,0.0,0.0,30.0
1752776012519,104.63,-9.69,159.06,0.61,1.31,0.05,0.0,0.0,0.0,1.0,0.0,0.0,0.0,0.0,0.0,0.0,30.0
1752776012559,102.63,-12.69,158.69,-0.11,1.72,1.15,0.0,0.0,0.0,1.0,0.0,0.0,0.0,0.0,0.0,0.0,30.0
1752776012598,99.19,-13.06,158.31,0.25,-0.07,0.78,0.0,0.0,0.0,1.0,0.0,0.0,0.0,0.0,0.0,0.0,30.0
1752776012832,108.0,-16.31,170.56,-0.34,0.8,-0.27,0.0,0.0,0.0,1.0,0.0,0.0,0.0,0.0,0.0,0.0,30.0
1752776012869,113.88,-17.13,174.0,-0.95,1.61,0.13,0.0,0.0,0.0,1.0,0.0,0.0,0.0,0.0,0.0,0.0,30.0
1752776013010,114.5,-15.63,175.5,-1.02,2.8,-0.04,0.0,0.0,0.0,1.0,0.0,0.0,0.0,0.0,0.0,0.0,30.0
1752776013046,113.31,-14.5,175.31,-0.66,-0.39,0.43,0.0,0.0,0.0,1.0,0.0,0.0,0.0,0.0,0.0,0.0,30.0
1752776013078,112.63,-13.88,175.31,0.09,1.43,-1.13,0.0,0.0,0.0,1.0,0.0,0.0,0.0,0.0,0.0,0.0,30.0
1752776013218,87.94,-11.94,162.94,0.37,-1.58,-2.8,0.0,0.0,0.0,1.0,0.0,0.0,0.0,0.0,0.0,0.0,30.0
1752776013357,83.56,-23.19,147.0,1.31,-2.97,-0.45,0.0,0.0,0.0,1.0,0.0,0.0,0.0,0.0,0.0,0.0,30.0
1752776013393,84.31,-25.63,144.06,-2.03,2.98,2.03,0.0,0.0,0.0,1.0,0.0,0.0,0.0,0.0,0.0,0.0,30.0
1752776013431,194.31,-24.0,139.56,-0.14,1.12,0.56,0.0,0.0,0.0,1.0,0.0,0.0,0.0,0.0,0.0,0.0,30.0
1752776013461,202.13,-22.0,136.38,-1.17,-2.46,1.32,0.0,0.0,0.0,1.0,0.0,0.0,0.0,0.0,0.0,0.0,30.0
1752776013497,220.81,-17.13,133.31,-0.51,0.8,3.05,0.0,0.0,0.0,1.0,0.0,0.0,0.0,0.0,0.0,0.0,30.0
1752776013529,236.13,-11.81,132.94,1.42,-1.44,-2.43,0.0,0.0,0.0,1.0,0.0,0.0,0.0,0.0,0.0,0.0,30.0
1752776013571,240.38,-9.44,135.56,1.14,-1.27,-1.79,0.0,0.0,0.0,1.0,0.0,0.0,0.0,0.0,0.0,0.0,30.0
1752776013611,86.31,-9.19,138.69,-0.2,-0.02,-0.73,0.0,0.0,0.0,1.0,0.0,0.0,0.0,0.0,0.0,0.0,30.0
1752776013648,87.25,-9.94,139.88,0.39,0.68,-1.46,0.0,0.0,0.0,1.0,0.0,0.0,0.0,0.0,0.0,0.0,30.0
1752776013691,87.44,-10.75,141.81,-0.14,0.72,-0.77,0.0,0.0,0.0,1.0,0.0,0.0,0.0,0.0,0.0,0.0,30.0
1752776013726,87.5,-11.94,143.75,-0.51,1.85,-0.34,0.0,0.0,0.0,1.0,0.0,0.0,0.0,0.0,0.0,0.0,30.0
1752776013762,87.44,-12.94,144.06,-1.05,0.85,0.29,0.0,0.0,0.0,1.0,0.0,0.0,0.0,0.0,0.0,0.0,30.0
1752776013812,87.63,-14.44,143.69,-1.37,0.75,1.66,0.0,0.0,0.0,1.0,0.0,0.0,0.0,0.0,0.0,0.0,30.0
1752776013851,87.69,-15.38,144.13,-1.11,0.44,0.63,0.0,0.0,0.0,1.0,0.0,0.0,0.0,0.0,0.0,0.0,30.0
1752776013880,88.75,-15.56,144.31,-0.26,0.37,-0.19,0.0,0.0,0.0,1.0,0.0,0.0,0.0,0.0,0.0,0.0,30.0
1752776014021,86.0,-13.75,149.13,0.54,0.64,-1.53,0.0,0.0,0.0,1.0,0.0,0.0,0.0,0.0,0.0,0.0,30.0
1752776014162,176.0,-14.69,147.31,0.04,-0.26,0.93,0.0,0.0,0.0,1.0,0.0,0.0,0.0,0.0,0.0,0.0,30.0
1752776014200,174.44,-13.88,147.94,-0.38,0.55,-0.64,0.0,0.0,0.0,1.0,0.0,0.0,0.0,0.0,0.0,0.0,30.0
1752776014347,176.69,-22.69,152.0,3.02,-9.13,-4.11,0.0,0.0,0.0,1.0,0.0,0.0,0.0,0.0,0.0,0.0,30.0
1752776014676,208.5,-48.94,149.63,0.03,-0.27,-0.14,0.0,0.0,0.0,1.0,0.0,0.0,0.0,0.0,0.0,0.0,30.0
1752776014723,203.56,-52.63,147.44,0.05,-0.35,0.19,0.0,0.0,0.0,1.0,0.0,0.0,0.0,0.0,0.0,0.0,30.0
1752776014759,199.88,-56.38,145.75,0.09,-0.57,-0.15,0.0,0.0,0.0,1.0,0.0,0.0,0.0,0.0,0.0,0.0,30.0
1752776014897,186.13,-69.56,150.69,0.51,-0.7,0.01,0.0,0.0,0.0,1.0,0.0,0.0,0.0,0.0,0.0,0.0,30.0
1752776014948,182.13,-73.88,162.13,0.05,-1.08,0.15,0.0,0.0,0.0,1.0,0.0,0.0,0.0,0.0,0.0,0.0,30.0
1752776014965,179.13,-75.94,174.75,-0.44,1.1,0.48,0.0,0.0,0.0,1.0,0.0,0.0,0.0,0.0,0.0,0.0,30.0
1752776015004,174.5,-76.44,-163.25,-0.51,1.63,0.91,0.0,0.0,0.0,1.0,0.0,0.0,0.0,0.0,0.0,0.0,30.0
1752776015257,161.0,-70.19,-132.25,-0.29,0.05,0.25,0.0,0.0,0.0,1.0,0.0,0.0,0.0,0.0,0.0,0.0,30.0
1752776015292,160.94,-71.19,-145.38,0.29,2.75,0.92,0.0,0.0,0.0,1.0,0.0,0.0,0.0,0.0,0.0,0.0,30.0
1752776015328,170.06,-72.13,-169.19,1.42,0.93,0.06,0.0,0.0,0.0,1.0,0.0,0.0,0.0,0.0,0.0,0.0,30.0
1752776015464,207.19,-55.81,133.94,0.56,1.15,0.55,0.0,0.0,0.0,1.0,0.0,0.0,0.0,0.0,0.0,0.0,30.0
1752776015496,211.44,-53.19,131.56,-1.03,-0.93,0.53,0.0,0.0,0.0,1.0,0.0,0.0,0.0,0.0,0.0,0.0,30.0
1752776015534,217.0,-48.56,130.25,-0.13,0.28,0.25,0.0,0.0,0.0,1.0,0.0,0.0,0.0,0.0,0.0,0.0,30.0
1752776015676,239.5,-35.44,125.38,0.02,-0.07,-0.33,0.0,0.0,0.0,1.0,0.0,0.0,0.0,0.0,0.0,0.0,30.0
1752776015814,261.13,-25.75,129.75,0.08,-0.28,0.29,0.0,0.0,0.0,1.0,0.0,0.0,0.0,0.0,0.0,0.0,30.0
1752776015852,266.13,-23.56,131.25,0.02,-0.02,-0.1,0.0,0.0,0.0,1.0,0.0,0.0,0.0,0.0,0.0,0.0,30.0
1752776015885,272.44,-21.19,132.25,-0.08,-0.5,-0.52,0.0,0.0,0.0,1.0,0.0,0.0,0.0,0.0,0.0,0.0,30.0
1752776015930,275.75,-19.88,132.94,-0.72,0.26,-0.03,0.0,0.0,0.0,1.0,0.0,0.0,0.0,0.0,0.0,0.0,30.0
1752776016069,270.56,-21.88,134.69,0.09,0.25,-0.1,0.0,0.0,0.0,1.0,0.0,0.0,0.0,0.0,0.0,0.0,30.0
1752776016104,270.06,-22.5,134.63,-0.06,-0.3,-0.22,0.0,0.0,0.0,1.0,0.0,0.0,0.0,0.0,0.0,0.0,30.0
1752776016244,261.31,-29.0,136.25,-0.28,-0.38,-0.02,0.0,0.0,0.0,1.0,0.0,0.0,0.0,0.0,0.0,0.0,30.0
1752776016280,259.63,-29.94,136.69,-0.34,0.26,0.08,0.0,0.0,0.0,1.0,0.0,0.0,0.0,0.0,0.0,0.0,30.0
1752776016419,259.19,-30.81,136.44,-0.3,0.32,-0.01,0.0,0.0,0.0,1.0,0.0,0.0,0.0,0.0,0.0,0.0,30.0
1752776016563,259.94,-30.19,137.0,-0.27,0.48,-0.08,0.0,0.0,0.0,1.0,0.0,0.0,0.0,0.0,0.0,0.0,30.0
1752776016606,259.31,-30.31,137.13,-0.19,0.1,0.0,0.0,0.0,0.0,1.0,0.0,0.0,0.0,0.0,0.0,0.0,30.0
1752776016863,252.75,-32.94,138.94,-0.17,0.12,-0.06,0.0,0.0,0.0,1.0,0.0,0.0,0.0,0.0,0.0,0.0,30.0
1752776017101,240.44,-38.88,142.69,-0.18,0.06,-0.03,0.0,0.0,0.0,1.0,0.0,0.0,0.0,0.0,0.0,0.0,30.0
1752776017239,230.69,-42.88,145.81,-0.19,0.36,-0.02,0.0,0.0,0.0,1.0,0.0,0.0,0.0,0.0,0.0,0.0,30.0
1752776017286,227.25,-44.31,146.94,-0.24,0.38,0.14,0.0,0.0,0.0,1.0,0.0,0.0,0.0,0.0,0.0,0.0,30.0
1752776017429,218.0,-47.88,150.88,-0.12,0.14,0.09,0.0,0.0,0.0,1.0,0.0,0.0,0.0,0.0,0.0,0.0,30.0
1752776017567,205.19,-52.31,157.69,0.27,-0.48,-0.13,0.0,0.0,0.0,1.0,0.0,0.0,0.0,0.0,0.0,0.0,30.0
1752776017713,192.5,-56.25,166.94,-0.03,0.25,0.11,0.0,0.0,0.0,1.0,0.0,0.0,0.0,0.0,0.0,0.0,30.0
1752776017847,186.0,-57.38,173.5,-0.08,0.53,0.13,0.0,0.0,0.0,1.0,0.0,0.0,0.0,0.0,0.0,0.0,30.0
1752776017893,185.75,-57.19,172.19,0.36,-0.01,0.05,0.0,0.0,0.0,1.0,0.0,0.0,0.0,0.0,0.0,0.0,30.0
1752776017929,184.75,-57.25,173.06,-0.35,-0.24,0.21,0.0,0.0,0.0,1.0,0.0,0.0,0.0,0.0,0.0,0.0,30.0
1752776017961,182.56,-57.56,174.75,0.29,0.04,-0.11,0.0,0.0,0.0,1.0,0.0,0.0,0.0,0.0,0.0,0.0,30.0
1752776017993,181.63,-57.75,175.81,-0.23,0.25,0.07,0.0,0.0,0.0,1.0,0.0,0.0,0.0,0.0,0.0,0.0,30.0
1752776018034,180.19,-58.0,177.13,-0.06,0.12,0.13,0.0,0.0,0.0,1.0,0.0,0.0,0.0,0.0,0.0,0.0,30.0
1752776018288,175.44,-58.81,178.13,-0.07,0.36,0.22,0.0,0.0,0.0,1.0,0.0,0.0,0.0,0.0,0.0,0.0,30.0
1752776018321,176.88,-58.63,174.56,0.14,0.06,0.11,0.0,0.0,0.0,1.0,0.0,0.0,0.0,0.0,0.0,0.0,30.0
1752776018369,178.06,-58.38,172.19,-0.05,0.03,0.16,0.0,0.0,0.0,1.0,0.0,0.0,0.0,0.0,0.0,0.0,30.0
1752776018395,179.44,-57.38,168.63,-0.31,0.44,0.23,0.0,0.0,0.0,1.0,0.0,0.0,0.0,0.0,0.0,0.0,30.0
1752776018426,181.5,-56.06,165.56,-0.01,0.07,0.0,0.0,0.0,0.0,1.0,0.0,0.0,0.0,0.0,0.0,0.0,30.0
1752776018563,192.94,-48.94,155.63,0.11,0.01,0.09,0.0,0.0,0.0,1.0,0.0,0.0,0.0,0.0,0.0,0.0,30.0
1752776018798,205.0,-40.94,150.5,0.0,-0.16,-0.03,0.0,0.0,0.0,1.0,0.0,0.0,0.0,0.0,0.0,0.0,30.0
1752776018835,209.06,-39.06,149.0,-0.44,1.3,0.41,0.0,0.0,0.0,1.0,0.0,0.0,0.0,0.0,0.0,0.0,30.0
1752776018881,214.0,-36.44,147.13,0.16,-0.1,-0.1,0.0,0.0,0.0,1.0,0.0,0.0,0.0,0.0,0.0,0.0,30.0
1752776018915,217.38,-34.75,146.06,-0.12,-0.04,0.0,0.0,0.0,0.0,1.0,0.0,0.0,0.0,0.0,0.0,0.0,30.0
1752776019052,229.75,-28.94,143.06,-0.05,-0.07,-0.14,0.0,0.0,0.0,1.0,0.0,0.0,0.0,0.0,0.0,0.0,30.0
1752776019183,236.81,-25.88,140.5,0.11,0.55,-0.14,0.0,0.0,0.0,1.0,0.0,0.0,0.0,0.0,0.0,0.0,30.0
1752776019338,248.31,-21.69,134.69,0.07,-0.08,-0.07,0.0,0.0,0.0,1.0,0.0,0.0,0.0,0.0,0.0,0.0,30.0
1752776019375,249.88,-21.19,133.88,0.15,-0.57,-0.13,0.0,0.0,0.0,1.0,0.0,0.0,0.0,0.0,0.0,0.0,30.0
1752776019399,250.75,-21.0,133.31,0.01,-0.37,0.0,0.0,0.0,0.0,1.0,0.0,0.0,0.0,0.0,0.0,0.0,30.0
1752776019440,249.94,-22.19,132.63,0.06,-0.25,0.0,0.0,0.0,0.0,1.0,0.0,0.0,0.0,0.0,0.0,0.0,30.0
1752776019476,245.31,-25.63,133.13,0.17,-0.94,-0.06,0.0,0.0,0.0,1.0,0.0,0.0,0.0,0.0,0.0,0.0,30.0
1752776019515,240.13,-29.38,134.5,-0.27,0.43,0.22,0.0,0.0,0.0,1.0,0.0,0.0,0.0,0.0,0.0,0.0,30.0
1752776019547,235.88,-32.19,135.94,0.21,-0.05,-0.06,0.0,0.0,0.0,1.0,0.0,0.0,0.0,0.0,0.0,0.0,30.0
1752776019585,229.38,-36.0,138.44,-0.2,0.06,0.09,0.0,0.0,0.0,1.0,0.0,0.0,0.0,0.0,0.0,0.0,30.0
1752776019720,209.38,-47.19,147.63,0.18,0.37,0.03,0.0,0.0,0.0,1.0,0.0,0.0,0.0,0.0,0.0,0.0,30.0
1752776019863,195.25,-53.5,157.44,0.06,0.3,0.06,0.0,0.0,0.0,1.0,0.0,0.0,0.0,0.0,0.0,0.0,30.0
1752776019897,191.38,-55.13,160.88,-0.14,-0.05,0.1,0.0,0.0,0.0,1.0,0.0,0.0,0.0,0.0,0.0,0.0,30.0
1752776019947,188.94,-56.25,163.81,0.11,0.41,0.0,0.0,0.0,0.0,1.0,0.0,0.0,0.0,0.0,0.0,0.0,30.0
1752776019980,186.44,-57.75,167.19,0.22,-0.43,-0.04,0.0,0.0,0.0,1.0,0.0,0.0,0.0,0.0,0.0,0.0,30.0
1752776020027,182.81,-59.44,171.38,0.0,0.14,-0.04,0.0,0.0,0.0,1.0,0.0,0.0,0.0,0.0,0.0,0.0,30.0
1752776020160,180.0,-61.25,175.25,-0.13,0.21,0.09,0.0,0.0,0.0,1.0,0.0,0.0,0.0,0.0,0.0,0.0,30.0
1752776020314,186.0,-58.25,164.38,0.1,-0.12,0.0,0.0,0.0,0.0,1.0,0.0,0.0,0.0,0.0,0.0,0.0,30.0
1752776020347,188.0,-56.31,160.31,-0.38,0.32,0.07,0.0,0.0,0.0,1.0,0.0,0.0,0.0,0.0,0.0,0.0,30.0
1752776020382,191.81,-52.81,156.0,-0.09,-0.04,0.05,0.0,0.0,0.0,1.0,0.0,0.0,0.0,0.0,0.0,0.0,30.0
1752776020519,213.75,-39.13,145.63,0.61,-0.42,0.04,0.0,0.0,0.0,1.0,0.0,0.0,0.0,0.0,0.0,0.0,30.0
1752776020553,218.38,-37.56,142.81,0.55,0.24,0.14,0.0,0.0,0.0,1.0,0.0,0.0,0.0,0.0,0.0,0.0,30.0
1752776020587,217.56,-38.25,139.69,0.49,1.51,0.24,0.0,0.0,0.0,1.0,0.0,0.0,0.0,0.0,0.0,0.0,30.0
1752776020639,217.44,-38.06,137.38,-0.73,-0.08,-0.32,0.0,0.0,0.0,1.0,0.0,0.0,0.0,0.0,0.0,0.0,30.0
1752776020670,218.13,-37.56,136.06,0.34,-0.44,-0.19,0.0,0.0,0.0,1.0,0.0,0.0,0.0,0.0,0.0,0.0,30.0
1752776020702,215.5,-38.31,134.56,0.2,0.04,0.14,0.0,0.0,0.0,1.0,0.0,0.0,0.0,0.0,0.0,0.0,30.0
1752776020733,213.81,-38.06,133.63,0.0,-0.51,0.03,0.0,0.0,0.0,1.0,0.0,0.0,0.0,0.0,0.0,0.0,30.0
1752776020772,213.06,-38.19,134.0,-2.54,-1.5,0.53,0.0,0.0,0.0,1.0,0.0,0.0,0.0,0.0,0.0,0.0,30.0
1752776020911,207.38,-41.25,134.44,-0.15,-0.27,0.29,0.0,0.0,0.0,1.0,0.0,0.0,0.0,0.0,0.0,0.0,30.0
1752776020945,206.88,-41.75,133.56,0.08,0.23,0.04,0.0,0.0,0.0,1.0,0.0,0.0,0.0,0.0,0.0,0.0,30.0
1752776020991,207.5,-42.13,131.94,0.05,0.17,0.17,0.0,0.0,0.0,1.0,0.0,0.0,0.0,0.0,0.0,0.0,30.0
1752776021026,207.44,-43.5,129.5,0.16,-1.46,-0.99,0.0,0.0,0.0,1.0,0.0,0.0,0.0,0.0,0.0,0.0,30.0
1752776021164,194.69,-54.88,121.63,0.25,0.2,-0.19,0.0,0.0,0.0,1.0,0.0,0.0,0.0,0.0,0.0,0.0,30.0
1752776021199,191.25,-57.13,120.19,0.17,-0.52,2.12,0.0,0.0,0.0,1.0,0.0,0.0,0.0,0.0,0.0,0.0,30.0
1752776021249,189.31,-58.63,120.31,0.27,-0.29,0.01,0.0,0.0,0.0,1.0,0.0,0.0,0.0,0.0,0.0,0.0,30.0
1752776021383,175.75,-67.38,121.31,0.38,-0.93,0.41,0.0,0.0,0.0,1.0,0.0,0.0,0.0,0.0,0.0,0.0,30.0
1752776021613,147.88,-83.75,177.38,-0.04,0.51,-0.31,0.0,0.0,0.0,1.0,0.0,0.0,0.0,0.0,0.0,0.0,30.0
1752776021651,143.81,-84.94,179.56,0.28,-0.35,0.52,0.0,0.0,0.0,1.0,0.0,0.0,0.0,0.0,0.0,0.0,30.0
1752776021691,139.25,-85.5,-177.75,0.27,-0.73,0.09,0.0,0.0,0.0,1.0,0.0,0.0,0.0,0.0,0.0,0.0,30.0
1752776021729,136.19,-84.81,-175.75,-0.06,1.04,0.34,0.0,0.0,0.0,1.0,0.0,0.0,0.0,0.0,0.0,0.0,30.0
1752776021869,131.44,-82.38,-112.63,-0.12,0.8,0.35,0.0,0.0,0.0,1.0,0.0,0.0,0.0,0.0,0.0,0.0,30.0
1752776022011,130.56,-81.75,-117.31,0.38,-0.55,-0.41,0.0,0.0,0.0,1.0,0.0,0.0,0.0,0.0,0.0,0.0,30.0
1752776022045,130.63,-81.88,-119.63,0.16,-0.21,-0.03,0.0,0.0,0.0,1.0,0.0,0.0,0.0,0.0,0.0,0.0,30.0
1752776022078,130.0,-82.13,-125.63,0.1,0.26,0.33,0.0,0.0,0.0,1.0,0.0,0.0,0.0,0.0,0.0,0.0,30.0
1752776022126,129.25,-82.13,-133.25,0.08,-0.2,-0.43,0.0,0.0,0.0,1.0,0.0,0.0,0.0,0.0,0.0,0.0,30.0
1752776022159,128.94,-82.19,-141.94,-0.01,0.79,0.75,0.0,0.0,0.0,1.0,0.0,0.0,0.0,0.0,0.0,0.0,30.0
1752776022396,137.94,-71.63,154.63,0.17,0.13,0.01,0.0,0.0,0.0,1.0,0.0,0.0,0.0,0.0,0.0,0.0,30.0
1752776022436,141.38,-68.5,149.13,0.19,-0.24,-0.94,0.0,0.0,0.0,1.0,0.0,0.0,0.0,0.0,0.0,0.0,30.0
1752776022479,146.31,-65.69,143.88,0.18,0.17,0.59,0.0,0.0,0.0,1.0,0.0,0.0,0.0,0.0,0.0,0.0,30.0
1752776022527,153.13,-61.75,138.81,0.36,0.05,-0.76,0.0,0.0,0.0,1.0,0.0,0.0,0.0,0.0,0.0,0.0,30.0
1752776022554,160.5,-58.44,133.75,0.38,-0.4,0.64,0.0,0.0,0.0,1.0,0.0,0.0,0.0,0.0,0.0,0.0,30.0
1752776022597,165.5,-55.31,130.25,0.34,-0.09,-0.14,0.0,0.0,0.0,1.0,0.0,0.0,0.0,0.0,0.0,0.0,30.0
1752776022643,172.56,-52.31,126.5,0.25,0.08,0.09,0.0,0.0,0.0,1.0,0.0,0.0,0.0,0.0,0.0,0.0,30.0
1752776022782,189.25,-44.88,115.88,0.47,-1.18,-0.25,0.0,0.0,0.0,1.0,0.0,0.0,0.0,0.0,0.0,0.0,30.0
1752776022916,198.06,-40.0,102.38,0.18,0.5,-1.0,0.0,0.0,0.0,1.0,0.0,0.0,0.0,0.0,0.0,0.0,30.0
1752776022957,198.0,-39.56,97.75,0.2,-1.52,-0.3,0.0,0.0,0.0,1.0,0.0,0.0,0.0,0.0,0.0,0.0,30.0
1752776023000,197.13,-39.5,94.5,0.37,-0.03,-0.4,0.0,0.0,0.0,1.0,0.0,0.0,0.0,0.0,0.0,0.0,30.0
1752776023134,191.25,-38.94,82.19,0.84,-0.67,0.1,0.0,0.0,0.0,1.0,0.0,0.0,0.0,0.0,0.0,0.0,30.0
1752776023159,189.69,-38.88,79.75,0.47,-0.44,-0.06,0.0,0.0,0.0,1.0,0.0,0.0,0.0,0.0,0.0,0.0,30.0
1752776023416,169.31,-43.88,63.19,0.65,-1.46,-0.48,0.0,0.0,0.0,1.0,0.0,0.0,0.0,0.0,0.0,0.0,30.0
1752776023441,168.0,-43.81,60.56,0.69,0.47,0.55,0.0,0.0,0.0,1.0,0.0,0.0,0.0,0.0,0.0,0.0,30.0
1752776023478,166.0,-43.75,57.88,0.3,-0.14,-0.04,0.0,0.0,0.0,1.0,0.0,0.0,0.0,0.0,0.0,0.0,30.0
1752776023520,163.88,-43.5,54.81,1.67,-0.44,-2.78,0.0,0.0,0.0,1.0,0.0,0.0,0.0,0.0,0.0,0.0,30.0
1752776023554,159.25,-43.63,52.5,0.84,-0.46,-0.57,0.0,0.0,0.0,1.0,0.0,0.0,0.0,0.0,0.0,0.0,30.0
1752776023588,154.31,-43.88,50.06,0.53,-1.03,-0.86,0.0,0.0,0.0,1.0,0.0,0.0,0.0,0.0,0.0,0.0,30.0
1752776023727,136.75,-44.63,39.63,0.88,-0.47,-0.51,0.0,0.0,0.0,1.0,0.0,0.0,0.0,0.0,0.0,0.0,30.0
1752776023759,134.88,-44.69,37.88,0.71,-0.57,-0.47,0.0,0.0,0.0,1.0,0.0,0.0,0.0,0.0,0.0,0.0,30.0
1752776023807,131.25,-44.75,36.13,0.86,-0.12,-0.07,0.0,0.0,0.0,1.0,0.0,0.0,0.0,0.0,0.0,0.0,30.0
1752776023846,126.19,-45.06,33.38,0.22,-0.81,-0.33,0.0,0.0,0.0,1.0,0.0,0.0,0.0,0.0,0.0,0.0,30.0
1752776023878,120.5,-45.19,29.56,-0.44,-1.05,-0.49,0.0,0.0,0.0,1.0,0.0,0.0,0.0,0.0,0.0,0.0,30.0
1752776023916,116.69,-45.13,26.5,0.84,-1.84,-0.2,0.0,0.0,0.0,1.0,0.0,0.0,0.0,0.0,0.0,0.0,30.0
1752776023947,108.0,-44.06,22.63,0.02,1.12,-0.24,0.0,0.0,0.0,1.0,0.0,0.0,0.0,0.0,0.0,0.0,30.0
1752776023991,103.56,-42.19,20.31,0.14,1.16,-0.02,0.0,0.0,0.0,1.0,0.0,0.0,0.0,0.0,0.0,0.0,30.0
1752776024034,102.88,-40.06,18.94,0.44,-0.13,-0.13,0.0,0.0,0.0,1.0,0.0,0.0,0.0,0.0,0.0,0.0,30.0
1752776024066,100.88,-37.25,16.19,0.91,-0.33,-0.28,0.0,0.0,0.0,1.0,0.0,0.0,0.0,0.0,0.0,0.0,30.0
1752776024102,97.38,-34.75,11.69,0.3,-0.52,-0.12,0.0,0.0,0.0,1.0,0.0,0.0,0.0,0.0,0.0,0.0,30.0
1752776024144,94.13,-33.31,8.69,0.07,-1.02,0.07,0.0,0.0,0.0,1.0,0.0,0.0,0.0,0.0,0.0,0.0,30.0
1752776024178,93.06,-32.38,7.25,0.27,-0.71,-0.01,0.0,0.0,0.0,1.0,0.0,0.0,0.0,0.0,0.0,0.0,30.0
1752776024213,91.13,-32.0,6.25,0.3,0.78,0.02,0.0,0.0,0.0,1.0,0.0,0.0,0.0,0.0,0.0,0.0,30.0
1752776024358,100.81,-45.94,21.44,-2.22,0.67,0.77,0.0,0.0,0.0,1.0,0.0,0.0,0.0,0.0,0.0,0.0,30.0
1752776024393,107.94,-53.81,32.0,3.3,-1.94,-0.07,0.0,0.0,0.0,1.0,0.0,0.0,0.0,0.0,0.0,0.0,30.0
1752776024427,111.38,-58.94,41.75,2.54,2.49,1.06,0.0,0.0,0.0,1.0,0.0,0.0,0.0,0.0,0.0,0.0,30.0
1752776024462,113.13,-61.69,50.81,0.08,1.14,-1.85,0.0,0.0,0.0,1.0,0.0,0.0,0.0,0.0,0.0,0.0,30.0
1752776024510,118.44,-63.56,60.69,1.2,0.73,-0.44,0.0,0.0,0.0,1.0,0.0,0.0,0.0,0.0,0.0,0.0,30.0
1752776024544,133.81,-60.88,93.0,-7.95,-6.01,6.89,0.0,0.0,0.0,1.0,0.0,0.0,0.0,0.0,0.0,0.0,30.0
1752776024686,146.38,-48.56,138.63,4.38,0.23,-9.03,0.0,0.0,0.0,1.0,0.0,0.0,0.0,0.0,0.0,0.0,30.0
1752776024720,148.69,-45.5,144.13,1.25,-4.33,-1.42,0.0,0.0,0.0,1.0,0.0,0.0,0.0,0.0,0.0,0.0,30.0
1752776024752,147.38,-44.38,149.13,-0.46,2.73,-2.63,0.0,0.0,0.0,1.0,0.0,0.0,0.0,0.0,0.0,0.0,30.0
1752776024789,151.94,-42.81,149.06,0.3,-1.53,0.44,0.0,0.0,0.0,1.0,0.0,0.0,0.0,0.0,0.0,0.0,30.0
1752776024824,157.13,-39.31,150.19,0.66,-3.64,1.79,0.0,0.0,0.0,1.0,0.0,0.0,0.0,0.0,0.0,0.0,30.0
1752776024961,101.19,-28.19,157.69,0.49,1.14,-1.51,0.0,0.0,0.0,1.0,0.0,0.0,0.0,0.0,0.0,0.0,30.0
1752776025008,103.5,-27.5,162.81,0.75,-0.78,-3.17,0.0,0.0,0.0,1.0,0.0,0.0,0.0,0.0,0.0,0.0,30.0
1752776025135,101.94,-38.81,-174.38,-0.05,-0.61,0.79,0.0,0.0,0.0,1.0,0.0,0.0,0.0,0.0,0.0,0.0,30.0
1752776025176,59.19,-43.63,-158.19,-0.25,0.08,-2.44,0.0,0.0,0.0,1.0,0.0,0.0,0.0,0.0,0.0,0.0,30.0
1752776035406,0.0,0.0,0.0,0.13,0.94,-4.7,0.0,0.0,0.0,1.0,0.0,0.0,0.0,0.0,0.0,0.0,30.0
1752776035421,0.0,0.0,0.0,0.0,0.0,0.0,0.0,0.0,0.0,1.0,0.0,0.0,0.0,0.0,0.0,0.0,30.0
1752776035546,355.81,-3.38,-2.75,-3.76,-3.34,-21.35,0.0,0.0,0.0,1.0,0.0,0.0,0.0,0.0,0.0,0.0,30.0
1752776035584,354.94,-6.06,-5.81,-2.36,-4.13,-19.76,0.0,0.0,0.0,1.0,0.0,0.0,0.0,0.0,0.0,0.0,30.0
1752776035717,355.5,2.44,-2.63,-3.27,-3.46,-17.87,0.0,0.0,0.0,1.0,0.0,0.0,0.0,0.0,0.0,0.0,30.0
1752776035757,357.19,7.63,-1.13,-4.85,-4.31,-17.45,0.0,0.0,0.0,1.0,0.0,0.0,0.0,0.0,0.0,0.0,30.0
1752776035997,7.19,-1.06,-9.25,-3.95,-5.01,-17.73,0.0,0.0,0.0,1.0,0.0,0.0,0.0,0.0,0.0,0.0,30.0
1752776036034,11.31,-3.5,-9.0,-1.65,-6.93,-19.76,0.0,0.0,0.0,1.0,0.0,0.0,0.0,0.0,0.0,0.0,30.0
1752776036065,12.0,-3.56,-8.5,-2.39,-9.22,-17.71,0.0,0.0,0.0,1.0,0.0,0.0,0.0,0.0,0.0,0.0,30.0
1752776036306,359.63,-2.56,-3.0,-3.72,-3.6,-18.17,0.0,0.0,0.0,1.0,0.0,0.0,0.0,0.0,0.0,0.0,30.0
1752776036345,359.94,-3.19,-0.25,-2.86,-3.49,-19.05,0.0,0.0,0.0,1.0,0.0,0.0,0.0,0.0,0.0,0.0,30.0
1752776036379,0.56,-3.19,1.44,-3.2,-2.2,-18.65,0.0,0.0,0.0,1.0,0.0,0.0,0.0,0.0,0.0,0.0,30.0
1752776036517,2.44,-5.94,2.06,-2.38,-2.44,-18.18,0.0,0.0,0.0,1.0,0.0,0.0,0.0,0.0,0.0,0.0,30.0
1752776036557,2.88,-7.06,3.19,-1.7,-2.27,-19.14,0.0,0.0,0.0,1.0,0.0,0.0,0.0,0.0,0.0,0.0,30.0
1752776036595,2.5,-5.0,4.19,-2.08,-1.26,-19.18,0.0,0.0,0.0,1.0,0.0,0.0,0.0,0.0,0.0,0.0,30.0
1752776036630,0.19,-3.06,2.88,0.72,-0.66,-16.12,0.0,0.0,0.0,1.0,0.0,0.0,0.0,0.0,0.0,0.0,30.0
1752776036666,357.88,-2.5,5.5,-2.63,-2.18,-18.05,0.0,0.0,0.0,1.0,0.0,0.0,0.0,0.0,0.0,0.0,30.0
1752776036699,357.0,-1.44,7.5,-3.13,0.55,-21.66,0.0,0.0,0.0,1.0,0.0,0.0,0.0,0.0,0.0,0.0,30.0
1752776036736,356.69,0.0,6.75,-4.28,-0.6,-17.54,0.0,0.0,0.0,1.0,0.0,0.0,0.0,0.0,0.0,0.0,30.0
1752776036770,356.94,0.19,5.63,-4.21,-0.93,-17.58,0.0,0.0,0.0,1.0,0.0,0.0,0.0,0.0,0.0,0.0,30.0
1752776036810,357.63,0.31,7.75,-4.56,-0.53,-20.29,0.0,0.0,0.0,1.0,0.0,0.0,0.0,0.0,0.0,0.0,30.0
1752776036848,357.94,0.13,8.0,-4.23,1.44,-18.48,0.0,0.0,0.0,1.0,0.0,0.0,0.0,0.0,0.0,0.0,30.0
1752776036881,359.31,-0.81,5.88,-4.0,-1.23,-18.02,0.0,0.0,0.0,1.0,0.0,0.0,0.0,0.0,0.0,0.0,30.0
1752776036918,0.5,-1.75,5.13,-3.57,-2.09,-18.83,0.0,0.0,0.0,1.0,0.0,0.0,0.0,0.0,0.0,0.0,30.0
1752776037061,2.69,-5.75,8.38,-1.79,-1.68,-18.68,0.0,0.0,0.0,1.0,0.0,0.0,0.0,0.0,0.0,0.0,30.0
1752776037197,5.0,-5.88,6.5,-2.87,0.36,-17.94,0.0,0.0,0.0,1.0,0.0,0.0,0.0,0.0,0.0,0.0,30.0
1752776037231,5.19,-5.63,7.0,-1.64,-2.43,-19.8,0.0,0.0,0.0,1.0,0.0,0.0,0.0,0.0,0.0,0.0,30.0
1752776037269,5.38,-5.69,6.81,-2.13,-0.75,-18.48,0.0,0.0,0.0,1.0,0.0,0.0,0.0,0.0,0.0,0.0,30.0
1752776037411,289.13,-17.94,168.63,-2.32,-0.93,-18.66,0.0,0.0,0.0,1.0,0.0,0.0,0.0,0.0,0.0,0.0,30.0
1752776037455,289.38,-17.44,168.31,0.02,0.03,-0.1,0.0,0.0,0.0,1.0,0.0,0.0,0.0,0.0,0.0,0.0,30.0
1752776037488,289.75,-16.44,168.13,-0.02,-0.22,0.12,0.0,0.0,0.0,1.0,0.0,0.0,0.0,0.0,0.0,0.0,30.0
1752776037522,289.94,-15.06,167.63,-0.1,0.09,-0.33,0.0,0.0,0.0,1.0,0.0,0.0,0.0,0.0,0.0,0.0,30.0
1752776037560,290.19,-12.81,164.69,0.23,0.5,-0.31,0.0,0.0,0.0,1.0,0.0,0.0,0.0,0.0,0.0,0.0,30.0
1752776037799,290.13,-12.69,164.38,-0.06,-0.36,0.33,0.0,0.0,0.0,1.0,0.0,0.0,0.0,0.0,0.0,0.0,30.0
1752776037833,290.31,-14.06,163.69,-0.17,0.24,-0.36,0.0,0.0,0.0,1.0,0.0,0.0,0.0,0.0,0.0,0.0,30.0
1752776037871,290.94,-13.38,163.13,0.68,-1.05,0.04,0.0,0.0,0.0,1.0,0.0,0.0,0.0,0.0,0.0,0.0,30.0
1752776037913,291.25,-12.63,163.19,0.12,-0.44,-0.17,0.0,0.0,0.0,1.0,0.0,0.0,0.0,0.0,0.0,0.0,30.0
1752776037953,291.94,-12.13,162.56,-0.4,0.02,0.36,0.0,0.0,0.0,1.0,0.0,0.0,0.0,0.0,0.0,0.0,30.0
1752776037990,292.56,-11.63,162.5,-0.01,0.18,-0.3,0.0,0.0,0.0,1.0,0.0,0.0,0.0,0.0,0.0,0.0,30.0
1752776038021,291.94,-11.25,163.88,0.24,0.13,-0.52,0.0,0.0,0.0,1.0,0.0,0.0,0.0,0.0,0.0,0.0,30.0
1752776038162,289.81,-9.81,163.69,0.19,-0.06,-0.17,0.0,0.0,0.0,1.0,0.0,0.0,0.0,0.0,0.0,0.0,30.0
1752776038401,291.13,-12.13,165.38,0.56,1.85,-2.42,0.0,0.0,0.0,1.0,0.0,0.0,0.0,0.0,0.0,0.0,30.0
1752776038435,291.06,-12.5,166.0,-0.07,0.24,-0.2,0.0,0.0,0.0,1.0,0.0,0.0,0.0,0.0,0.0,0.0,30.0
1752776038573,292.31,-17.5,165.44,0.06,0.24,0.07,0.0,0.0,0.0,1.0,0.0,0.0,0.0,0.0,0.0,0.0,30.0
1752776038814,291.38,-17.63,164.5,-0.17,-0.06,-0.49,0.0,0.0,0.0,1.0,0.0,0.0,0.0,0.0,0.0,0.0,30.0
1752776038852,291.69,-16.5,163.25,-0.14,-0.03,-0.16,0.0,0.0,0.0,1.0,0.0,0.0,0.0,0.0,0.0,0.0,30.0
1752776038887,291.81,-15.0,162.5,0.13,-0.07,0.14,0.0,0.0,0.0,1.0,0.0,0.0,0.0,0.0,0.0,0.0,30.0
1752776039025,292.13,-13.0,161.13,0.0,-0.22,0.05,0.0,0.0,0.0,1.0,0.0,0.0,0.0,0.0,0.0,0.0,30.0
1752776039067,292.44,-13.06,160.75,0.0,-0.28,0.08,0.0,0.0,0.0,1.0,0.0,0.0,0.0,0.0,0.0,0.0,30.0
1752776039108,292.94,-14.06,160.38,0.08,-0.03,-0.05,0.0,0.0,0.0,1.0,0.0,0.0,0.0,0.0,0.0,0.0,30.0
1752776039146,293.63,-15.5,159.38,-0.03,0.05,-0.24,0.0,0.0,0.0,1.0,0.0,0.0,0.0,0.0,0.0,0.0,30.0
1752776039488,294.13,-16.31,159.06,-0.16,-0.27,-0.06,0.0,0.0,0.0,1.0,0.0,0.0,0.0,0.0,0.0,0.0,30.0
1752776039524,293.44,-14.38,158.44,0.12,-0.13,-0.08,0.0,0.0,0.0,1.0,0.0,0.0,0.0,0.0,0.0,0.0,30.0
1752776039558,293.0,-13.69,157.75,0.3,-0.13,0.05,0.0,0.0,0.0,1.0,0.0,0.0,0.0,0.0,0.0,0.0,30.0
1752776039596,292.56,-13.25,157.69,-0.08,-0.02,0.07,0.0,0.0,0.0,1.0,0.0,0.0,0.0,0.0,0.0,0.0,30.0
1752776039738,289.25,-15.13,160.63,0.03,-0.01,-0.37,0.0,0.0,0.0,1.0,0.0,0.0,0.0,0.0,0.0,0.0,30.0
1752776039778,289.31,-16.81,161.5,0.0,0.12,-0.19,0.0,0.0,0.0,1.0,0.0,0.0,0.0,0.0,0.0,0.0,30.0
1752776039816,289.75,-17.88,160.13,-0.57,0.35,0.57,0.0,0.0,0.0,1.0,0.0,0.0,0.0,0.0,0.0,0.0,30.0
1752776040051,285.63,-15.81,160.44,-0.37,-0.77,1.13,0.0,0.0,0.0,1.0,0.0,0.0,0.0,0.0,0.0,0.0,30.0
1752776040189,286.69,-8.19,160.63,-0.12,0.04,-0.23,0.0,0.0,0.0,1.0,0.0,0.0,0.0,0.0,0.0,0.0,30.0
1752776040228,286.75,-7.25,160.63,-0.18,-0.43,0.32,0.0,0.0,0.0,1.0,0.0,0.0,0.0,0.0,0.0,0.0,30.0
1752776040271,287.06,-6.56,160.94,-0.21,-0.06,0.06,0.0,0.0,0.0,1.0,0.0,0.0,0.0,0.0,0.0,0.0,30.0
1752776040511,286.75,-1.13,166.69,0.1,0.03,-0.27,0.0,0.0,0.0,1.0,0.0,0.0,0.0,0.0,0.0,0.0,30.0
1752776040649,286.38,-2.31,170.31,-0.14,0.21,-0.05,0.0,0.0,0.0,1.0,0.0,0.0,0.0,0.0,0.0,0.0,30.0
1752776040691,286.38,-3.31,171.13,-0.15,-0.18,-0.04,0.0,0.0,0.0,1.0,0.0,0.0,0.0,0.0,0.0,0.0,30.0
1752776040729,286.25,-3.88,171.19,-0.18,0.03,-0.14,0.0,0.0,0.0,1.0,0.0,0.0,0.0,0.0,0.0,0.0,30.0
1752776040969,285.25,-1.5,168.75,-0.1,0.1,-0.03,0.0,0.0,0.0,1.0,0.0,0.0,0.0,0.0,0.0,0.0,30.0
1752776041008,285.25,-1.06,168.88,-0.05,-0.12,0.07,0.0,0.0,0.0,1.0,0.0,0.0,0.0,0.0,0.0,0.0,30.0
1752776041042,285.13,-0.81,168.75,-0.03,0.02,-0.37,0.0,0.0,0.0,1.0,0.0,0.0,0.0,0.0,0.0,0.0,30.0
1752776041079,285.0,-0.06,168.44,-0.13,-0.04,0.02,0.0,0.0,0.0,1.0,0.0,0.0,0.0,0.0,0.0,0.0,30.0
1752776041119,284.88,0.81,168.13,-0.16,-0.23,0.09,0.0,0.0,0.0,1.0,0.0,0.0,0.0,0.0,0.0,0.0,30.0
1752776065389,0.0,0.0,0.0,0.12,-2.01,-9.75,0.0,0.0,0.0,1.0,0.0,0.0,0.0,0.0,0.0,0.0,0.0
1752776065523,359.94,-8.5,-111.81,0.0,0.0,0.0,0.0,0.0,0.0,1.0,0.0,0.0,0.0,0.0,0.0,0.0,30.0
1752776065560,359.94,-8.5,-111.88,0.11,-0.46,-0.02,0.0,0.0,0.0,1.0,0.0,0.0,0.0,0.0,0.0,0.0,30.0
1752776065600,359.94,-8.56,-111.81,0.04,-0.37,0.17,0.0,0.0,0.0,1.0,0.0,0.0,0.0,0.0,0.0,0.0,30.0
1752776065841,0.0,-8.56,-111.88,0.08,-0.35,0.11,0.0,0.0,0.0,1.0,0.0,0.0,0.0,0.0,0.0,0.0,30.0
1752776065990,359.94,-8.56,-111.94,0.07,-0.35,0.11,0.0,0.0,0.0,1.0,0.0,0.0,0.0,0.0,0.0,0.0,30.0
1752776066023,0.0,-8.56,-111.88,0.09,-0.35,0.16,0.0,0.0,0.0,1.0,0.0,0.0,0.0,0.0,0.0,0.0,30.0
1752776066061,359.94,-8.5,-112.0,0.12,-0.37,0.07,0.0,0.0,0.0,1.0,0.0,0.0,0.0,0.0,0.0,0.0,30.0
1752776066100,0.0,-8.56,-111.94,0.09,-0.37,0.08,0.0,0.0,0.0,1.0,0.0,0.0,0.0,0.0,0.0,0.0,30.0
1752776066134,359.94,-8.5,-112.0,0.06,-0.45,0.1,0.0,0.0,0.0,1.0,0.0,0.0,0.0,0.0,0.0,0.0,30.0
1752776066171,0.0,-8.56,-111.94,0.1,-0.37,0.02,0.0,0.0,0.0,1.0,0.0,0.0,0.0,0.0,0.0,0.0,30.0
1752776066211,359.94,-8.56,-112.0,0.05,-0.36,0.14,0.0,0.0,0.0,1.0,0.0,0.0,0.0,0.0,0.0,0.0,30.0
1752776066250,0.0,-8.56,-111.94,0.12,-0.44,-0.01,0.0,0.0,0.0,1.0,0.0,0.0,0.0,0.0,0.0,0.0,30.0
1752776066285,0.0,-8.56,-111.94,0.03,-0.36,0.15,0.0,0.0,0.0,1.0,0.0,0.0,0.0,0.0,0.0,0.0,30.0
1752776066323,359.94,-8.5,-112.06,0.14,-0.35,0.04,0.0,0.0,0.0,1.0,0.0,0.0,0.0,0.0,0.0,0.0,30.0
1752776066362,0.0,-8.56,-111.94,0.06,-0.34,0.17,0.0,0.0,0.0,1.0,0.0,0.0,0.0,0.0,0.0,0.0,30.0
1752776066500,359.88,-8.5,-112.06,0.06,-0.45,0.07,0.0,0.0,0.0,1.0,0.0,0.0,0.0,0.0,0.0,0.0,30.0
1752776066534,359.94,-8.56,-111.94,0.08,-0.37,0.09,0.0,0.0,0.0,1.0,0.0,0.0,0.0,0.0,0.0,0.0,30.0
1752776066570,359.88,-8.5,-112.06,0.11,-0.32,0.14,0.0,0.0,0.0,1.0,0.0,0.0,0.0,0.0,0.0,0.0,30.0
1752776066603,359.88,-8.56,-112.06,0.09,-0.44,0.03,0.0,0.0,0.0,1.0,0.0,0.0,0.0,0.0,0.0,0.0,30.0
1752776066742,359.88,-8.5,-112.06,0.0,-0.01,0.0,0.0,0.0,0.0,1.0,0.0,0.0,0.0,0.0,0.0,0.0,30.0
1752776066774,359.88,-8.56,-112.06,0.08,-0.05,-0.1,0.0,0.0,0.0,1.0,0.0,0.0,0.0,0.0,0.0,0.0,30.0
1752776066914,359.88,-8.5,-112.06,0.0,0.0,0.07,0.0,0.0,0.0,1.0,0.0,0.0,0.0,0.0,0.0,0.0,30.0
1752776066955,359.94,-8.56,-112.0,0.09,0.06,-0.03,0.0,0.0,0.0,1.0,0.0,0.0,0.0,0.0,0.0,0.0,30.0
1752776066992,359.88,-8.56,-112.06,0.0,0.03,0.02,0.0,0.0,0.0,1.0,0.0,0.0,0.0,0.0,0.0,0.0,30.0
1752776067024,359.88,-8.56,-112.06,0.07,0.05,-0.08,0.0,0.0,0.0,1.0,0.0,0.0,0.0,0.0,0.0,0.0,30.0
1752776067065,359.94,-8.56,-112.0,0.04,-0.05,0.02,0.0,0.0,0.0,1.0,0.0,0.0,0.0,0.0,0.0,0.0,30.0
1752776067111,359.94,-8.56,-112.06,0.06,-0.06,-0.11,0.0,0.0,0.0,1.0,0.0,0.0,0.0,0.0,0.0,0.0,30.0
1752776067143,359.94,-8.56,-112.06,0.0,-0.07,-0.01,0.0,0.0,0.0,1.0,0.0,0.0,0.0,0.0,0.0,0.0,30.0
1752776067175,359.88,-8.5,-112.13,0.08,-0.03,-0.07,0.0,0.0,0.0,1.0,0.0,0.0,0.0,0.0,0.0,0.0,30.0
1752776067213,359.94,-8.56,-112.0,0.02,0.02,0.01,0.0,0.0,0.0,1.0,0.0,0.0,0.0,0.0,0.0,0.0,30.0
1752776067252,359.88,-8.5,-112.13,0.06,-0.02,-0.01,0.0,0.0,0.0,1.0,0.0,0.0,0.0,0.0,0.0,0.0,30.0
1752776067286,359.94,-8.56,-112.0,0.04,-0.02,-0.07,0.0,0.0,0.0,1.0,0.0,0.0,0.0,0.0,0.0,0.0,30.0
1752776067324,359.81,-8.5,-112.13,0.01,-0.04,-0.03,0.0,0.0,0.0,1.0,0.0,0.0,0.0,0.0,0.0,0.0,30.0
1752776067366,359.94,-8.56,-112.0,0.04,-0.06,-0.07,0.0,0.0,0.0,1.0,0.0,0.0,0.0,0.0,0.0,0.0,30.0
1752776067414,359.88,-8.56,-112.13,0.03,0.07,0.02,0.0,0.0,0.0,1.0,0.0,0.0,0.0,0.0,0.0,0.0,30.0
1752776067446,359.94,-8.56,-112.0,0.05,-0.01,-0.02,0.0,0.0,0.0,1.0,0.0,0.0,0.0,0.0,0.0,0.0,30.0
1752776067477,359.81,-8.5,-112.13,0.05,-0.04,0.01,0.0,0.0,0.0,1.0,0.0,0.0,0.0,0.0,0.0,0.0,30.0
1752776067514,359.94,-8.56,-112.0,0.04,-0.1,-0.08,0.0,0.0,0.0,1.0,0.0,0.0,0.0,0.0,0.0,0.0,30.0
1752776067553,359.88,-8.56,-112.13,-0.03,0.0,0.09,0.0,0.0,0.0,1.0,0.0,0.0,0.0,0.0,0.0,0.0,30.0
1752776067587,359.88,-8.56,-112.13,0.11,-0.02,-0.13,0.0,0.0,0.0,1.0,0.0,0.0,0.0,0.0,0.0,0.0,30.0
1752776067625,359.94,-8.56,-112.0,-0.03,0.0,0.12,0.0,0.0,0.0,1.0,0.0,0.0,0.0,0.0,0.0,0.0,30.0
1752776067667,359.88,-8.56,-112.19,0.09,-0.04,-0.11,0.0,0.0,0.0,1.0,0.0,0.0,0.0,0.0,0.0,0.0,30.0
1752776067807,359.88,-8.56,-112.13,0.02,-0.03,0.01,0.0,0.0,0.0,1.0,0.0,0.0,0.0,0.0,0.0,0.0,30.0
1752776067845,359.88,-8.56,-112.13,0.09,-0.03,-0.14,0.0,0.0,0.0,1.0,0.0,0.0,0.0,0.0,0.0,0.0,30.0
1752776067877,359.94,-8.63,-112.06,0.01,-0.03,0.03,0.0,0.0,0.0,1.0,0.0,0.0,0.0,0.0,0.0,0.0,30.0
1752776068016,359.94,-8.63,-112.06,0.07,-0.04,-0.05,0.0,0.0,0.0,1.0,0.0,0.0,0.0,0.0,0.0,0.0,30.0
1752776068255,359.88,-8.56,-112.06,0.01,-0.04,0.02,0.0,0.0,0.0,1.0,0.0,0.0,0.0,0.0,0.0,0.0,30.0
1752776068289,359.88,-8.56,-112.06,0.04,-0.03,-0.03,0.0,0.0,0.0,1.0,0.0,0.0,0.0,0.0,0.0,0.0,30.0
1752776068327,359.88,-8.56,-112.13,0.05,-0.02,-0.07,0.0,0.0,0.0,1.0,0.0,0.0,0.0,0.0,0.0,0.0,30.0
1752776068367,359.88,-8.56,-112.13,0.02,-0.01,-0.01,0.0,0.0,0.0,1.0,0.0,0.0,0.0,0.0,0.0,0.0,30.0
1752776068405,359.88,-8.63,-112.06,0.08,-0.04,-0.07,0.0,0.0,0.0,1.0,0.0,0.0,0.0,0.0,0.0,0.0,30.0
1752776068439,359.94,-8.63,-112.06,0.02,0.0,0.0,0.0,0.0,0.0,1.0,0.0,0.0,0.0,0.0,0.0,0.0,30.0
1752776068477,359.88,-8.63,-112.13,0.1,-0.02,-0.06,0.0,0.0,0.0,1.0,0.0,0.0,0.0,0.0,0.0,0.0,30.0
1752776068517,359.88,-8.63,-112.06,0.01,-0.01,0.02,0.0,0.0,0.0,1.0,0.0,0.0,0.0,0.0,0.0,0.0,30.0
1752776068556,359.94,-8.63,-112.13,0.06,-0.01,-0.07,0.0,0.0,0.0,1.0,0.0,0.0,0.0,0.0,0.0,0.0,30.0
1752776068592,359.94,-8.63,-112.06,0.05,0.0,-0.03,0.0,0.0,0.0,1.0,0.0,0.0,0.0,0.0,0.0,0.0,30.0
1752776068627,359.94,-8.63,-112.13,0.06,-0.04,-0.04,0.0,0.0,0.0,1.0,0.0,0.0,0.0,0.0,0.0,0.0,30.0
1752776068867,359.94,-8.63,-112.13,0.07,-0.06,-0.06,0.0,0.0,0.0,1.0,0.0,0.0,0.0,0.0,0.0,0.0,30.0
1752776068899,359.94,-8.63,-112.06,0.06,-0.02,-0.02,0.0,0.0,0.0,1.0,0.0,0.0,0.0,0.0,0.0,0.0,30.0
1752776068941,359.94,-8.63,-112.13,0.07,-0.05,-0.03,0.0,0.0,0.0,1.0,0.0,0.0,0.0,0.0,0.0,0.0,30.0
1752776068978,359.94,-8.63,-112.06,0.05,-0.04,-0.05,0.0,0.0,0.0,1.0,0.0,0.0,0.0,0.0,0.0,0.0,30.0
1752776069119,359.94,-8.63,-112.13,0.07,-0.01,-0.06,0.0,0.0,0.0,1.0,0.0,0.0,0.0,0.0,0.0,0.0,30.0
1752776069158,359.94,-8.69,-112.06,0.06,-0.02,-0.04,0.0,0.0,0.0,1.0,0.0,0.0,0.0,0.0,0.0,0.0,30.0
1752776069191,359.94,-8.69,-112.06,0.05,-0.03,-0.04,0.0,0.0,0.0,1.0,0.0,0.0,0.0,0.0,0.0,0.0,30.0
1752776069329,359.94,-8.69,-112.06,0.06,-0.06,-0.06,0.0,0.0,0.0,1.0,0.0,0.0,0.0,0.0,0.0,0.0,30.0
1752776069370,359.94,-8.69,-112.06,0.07,-0.03,-0.05,0.0,0.0,0.0,1.0,0.0,0.0,0.0,0.0,0.0,0.0,30.0
1752776069408,359.94,-8.69,-112.06,0.04,-0.03,-0.03,0.0,0.0,0.0,1.0,0.0,0.0,0.0,0.0,0.0,0.0,30.0
1752776069442,359.94,-8.69,-112.06,0.06,-0.04,-0.09,0.0,0.0,0.0,1.0,0.0,0.0,0.0,0.0,0.0,0.0,30.0
1752776069479,359.94,-8.69,-112.06,0.07,-0.02,-0.05,0.0,0.0,0.0,1.0,0.0,0.0,0.0,0.0,0.0,0.0,30.0
1752776069512,359.94,-8.69,-112.06,0.05,-0.03,-0.03,0.0,0.0,0.0,1.0,0.0,0.0,0.0,0.0,0.0,0.0,30.0
1752776069559,359.94,-8.69,-112.06,0.04,-0.03,-0.04,0.0,0.0,0.0,1.0,0.0,0.0,0.0,0.0,0.0,0.0,30.0
1752776069592,359.94,-8.69,-112.06,0.07,-0.05,-0.04,0.0,0.0,0.0,1.0,0.0,0.0,0.0,0.0,0.0,0.0,30.0
1752776069730,359.94,-8.69,-112.06,0.06,-0.02,-0.04,0.0,0.0,0.0,1.0,0.0,0.0,0.0,0.0,0.0,0.0,30.0
1752776069871,359.94,-8.69,-112.0,0.09,-0.03,-0.05,0.0,0.0,0.0,1.0,0.0,0.0,0.0,0.0,0.0,0.0,30.0
1752776069909,359.94,-8.69,-112.06,0.04,-0.04,-0.02,0.0,0.0,0.0,1.0,0.0,0.0,0.0,0.0,0.0,0.0,30.0
1752776070044,359.94,-8.69,-112.0,0.06,-0.04,-0.06,0.0,0.0,0.0,1.0,0.0,0.0,0.0,0.0,0.0,0.0,30.0
1752776070180,359.94,-8.69,-112.06,0.06,-0.05,-0.06,0.0,0.0,0.0,1.0,0.0,0.0,0.0,0.0,0.0,0.0,30.0
1752776070216,359.94,-8.69,-112.0,0.07,-0.02,-0.04,0.0,0.0,0.0,1.0,0.0,0.0,0.0,0.0,0.0,0.0,30.0
1752776070250,359.94,-8.69,-112.06,0.05,-0.04,-0.06,0.0,0.0,0.0,1.0,0.0,0.0,0.0,0.0,0.0,0.0,30.0
1752776070282,359.94,-8.69,-112.0,0.08,-0.03,-0.07,0.0,0.0,0.0,1.0,0.0,0.0,0.0,0.0,0.0,0.0,30.0
1752776070422,359.94,-8.69,-112.0,0.07,-0.05,-0.05,0.0,0.0,0.0,1.0,0.0,0.0,0.0,0.0,0.0,0.0,30.0
1752776070461,359.94,-8.69,-112.0,0.05,-0.04,-0.05,0.0,0.0,0.0,1.0,0.0,0.0,0.0,0.0,0.0,0.0,30.0
1752776070494,359.94,-8.69,-112.0,0.08,-0.04,-0.05,0.0,0.0,0.0,1.0,0.0,0.0,0.0,0.0,0.0,0.0,30.0
1752776070632,359.94,-8.69,-112.06,0.06,-0.03,-0.03,0.0,0.0,0.0,1.0,0.0,0.0,0.0,0.0,0.0,0.0,30.0
1752776070773,359.94,-8.69,-112.06,0.08,-0.04,-0.03,0.0,0.0,0.0,1.0,0.0,0.0,0.0,0.0,0.0,0.0,30.0
1752776070812,359.94,-8.69,-112.0,0.08,-0.04,-0.08,0.0,0.0,0.0,1.0,0.0,0.0,0.0,0.0,0.0,0.0,30.0
1752776070846,359.94,-8.69,-112.0,0.05,-0.01,-0.01,0.0,0.0,0.0,1.0,0.0,0.0,0.0,0.0,0.0,0.0,30.0
1752776070883,359.94,-8.69,-112.06,0.08,-0.04,-0.08,0.0,0.0,0.0,1.0,0.0,0.0,0.0,0.0,0.0,0.0,30.0
1752776070924,359.94,-8.69,-112.0,0.04,-0.01,-0.01,0.0,0.0,0.0,1.0,0.0,0.0,0.0,0.0,0.0,0.0,30.0
1752776070962,359.94,-8.69,-112.06,0.09,-0.03,-0.06,0.0,0.0,0.0,1.0,0.0,0.0,0.0,0.0,0.0,0.0,30.0
1752776070996,359.94,-8.69,-112.0,0.07,-0.04,-0.05,0.0,0.0,0.0,1.0,0.0,0.0,0.0,0.0,0.0,0.0,30.0
1752776071033,359.94,-8.69,-112.06,0.06,-0.04,-0.01,0.0,0.0,0.0,1.0,0.0,0.0,0.0,0.0,0.0,0.0,30.0
1752776071277,359.94,-8.69,-112.0,0.05,-0.02,-0.03,0.0,0.0,0.0,1.0,0.0,0.0,0.0,0.0,0.0,0.0,30.0
1752776071317,359.94,-8.69,-112.0,0.07,-0.05,-0.06,0.0,0.0,0.0,1.0,0.0,0.0,0.0,0.0,0.0,0.0,30.0
1752776071553,359.94,-8.69,-112.0,0.07,-0.04,-0.06,0.0,0.0,0.0,1.0,0.0,0.0,0.0,0.0,0.0,0.0,30.0
1752776071585,359.94,-8.69,-112.0,0.1,-0.04,-0.07,0.0,0.0,0.0,1.0,0.0,0.0,0.0,0.0,0.0,0.0,30.0
1752776071725,359.94,-8.69,-112.0,0.06,-0.04,-0.03,0.0,0.0,0.0,1.0,0.0,0.0,0.0,0.0,0.0,0.0,30.0
1752776071764,359.94,-8.69,-112.0,0.09,-0.05,-0.11,0.0,0.0,0.0,1.0,0.0,0.0,0.0,0.0,0.0,0.0,30.0
1752776071798,359.94,-8.69,-112.0,0.06,-0.02,-0.03,0.0,0.0,0.0,1.0,0.0,0.0,0.0,0.0,0.0,0.0,30.0
1752776071837,359.94,-8.69,-112.0,0.08,-0.03,-0.1,0.0,0.0,0.0,1.0,0.0,0.0,0.0,0.0,0.0,0.0,30.0
1752776071877,359.94,-8.75,-112.0,0.06,-0.03,-0.02,0.0,0.0,0.0,1.0,0.0,0.0,0.0,0.0,0.0,0.0,30.0
1752776071918,359.94,-8.75,-112.0,0.1,-0.05,-0.1,0.0,0.0,0.0,1.0,0.0,0.0,0.0,0.0,0.0,0.0,30.0
1752776071954,0.0,-8.75,-111.94,0.07,-0.02,-0.08,0.0,0.0,0.0,1.0,0.0,0.0,0.0,0.0,0.0,0.0,30.0
1752776071986,0.0,-8.75,-112.0,0.05,-0.06,0.0,0.0,0.0,0.0,1.0,0.0,0.0,0.0,0.0,0.0,0.0,30.0
1752776072025,0.0,-8.75,-112.0,0.1,-0.02,-0.08,0.0,0.0,0.0,1.0,0.0,0.0,0.0,0.0,0.0,0.0,30.0
1752776072065,0.0,-8.75,-112.0,0.05,-0.08,-0.03,0.0,0.0,0.0,1.0,0.0,0.0,0.0,0.0,0.0,0.0,30.0
1752776072101,359.94,-8.75,-112.0,0.11,-0.01,-0.15,0.0,0.0,0.0,1.0,0.0,0.0,0.0,0.0,0.0,0.0,30.0
1752776072236,0.0,-8.75,-112.0,0.05,-0.04,0.0,0.0,0.0,0.0,1.0,0.0,0.0,0.0,0.0,0.0,0.0,30.0
1752776072276,0.0,-8.75,-112.0,0.08,-0.05,-0.1,0.0,0.0,0.0,1.0,0.0,0.0,0.0,0.0,0.0,0.0,30.0
1752776072315,0.0,-8.75,-112.0,0.06,-0.03,-0.03,0.0,0.0,0.0,1.0,0.0,0.0,0.0,0.0,0.0,0.0,30.0
1752776072349,0.0,-8.75,-112.0,0.1,-0.03,-0.09,0.0,0.0,0.0,1.0,0.0,0.0,0.0,0.0,0.0,0.0,30.0
1752776072385,0.0,-8.75,-112.0,0.08,-0.05,-0.03,0.0,0.0,0.0,1.0,0.0,0.0,0.0,0.0,0.0,0.0,30.0
1752776072418,0.0,-8.75,-112.0,0.07,-0.04,-0.08,0.0,0.0,0.0,1.0,0.0,0.0,0.0,0.0,0.0,0.0,30.0
1752776072456,0.0,-8.75,-112.0,0.09,-0.05,-0.1,0.0,0.0,0.0,1.0,0.0,0.0,0.0,0.0,0.0,0.0,30.0
1752776072599,0.0,-8.75,-112.0,0.09,-0.05,-0.1,0.0,0.0,0.0,1.0,0.0,0.0,0.0,0.0,0.0,0.0,30.0
1752776072738,0.0,-8.75,-112.0,0.08,-0.02,-0.08,0.0,0.0,0.0,1.0,0.0,0.0,0.0,0.0,0.0,0.0,30.0
1752776072777,0.0,-8.75,-112.0,0.1,-0.03,-0.09,0.0,0.0,0.0,1.0,0.0,0.0,0.0,0.0,0.0,0.0,30.0
1752776072911,0.0,-8.75,-112.0,0.05,-0.05,-0.06,0.0,0.0,0.0,1.0,0.0,0.0,0.0,0.0,0.0,0.0,30.0
1752776073151,0.0,-8.81,-112.0,0.08,-0.02,-0.07,0.0,0.0,0.0,1.0,0.0,0.0,0.0,0.0,0.0,0.0,30.0
1752776073189,0.0,-8.81,-112.0,0.06,-0.03,-0.03,0.0,0.0,0.0,1.0,0.0,0.0,0.0,0.0,0.0,0.0,30.0
1752776073335,0.0,-8.81,-111.94,0.12,-0.05,-0.07,0.0,0.0,0.0,1.0,0.0,0.0,0.0,0.0,0.0,0.0,30.0
1752776073471,0.0,-8.81,-112.0,0.08,-0.02,-0.08,0.0,0.0,0.0,1.0,0.0,0.0,0.0,0.0,0.0,0.0,30.0
1752776073524,0.0,-8.81,-111.94,0.08,-0.04,-0.04,0.0,0.0,0.0,1.0,0.0,0.0,0.0,0.0,0.0,0.0,30.0
1752776073742,0.0,-8.81,-112.0,0.09,-0.06,-0.06,0.0,0.0,0.0,1.0,0.0,0.0,0.0,0.0,0.0,0.0,30.0
1752776073781,0.0,-8.81,-111.94,0.09,-0.05,-0.04,0.0,0.0,0.0,1.0,0.0,0.0,0.0,0.0,0.0,0.0,30.0
1752776073814,0.0,-8.81,-112.0,0.09,-0.04,-0.1,0.0,0.0,0.0,1.0,0.0,0.0,0.0,0.0,0.0,0.0,30.0
1752776073853,0.0,-8.81,-111.94,0.08,-0.05,-0.09,0.0,0.0,0.0,1.0,0.0,0.0,0.0,0.0,0.0,0.0,30.0
1752776073889,0.0,-8.81,-111.94,0.09,-0.03,-0.07,0.0,0.0,0.0,1.0,0.0,0.0,0.0,0.0,0.0,0.0,30.0
1752776074037,0.0,-8.81,-111.94,0.09,-0.04,-0.1,0.0,0.0,0.0,1.0,0.0,0.0,0.0,0.0,0.0,0.0,30.0
1752776074161,0.0,-8.81,-111.94,0.08,-0.05,-0.04,0.0,0.0,0.0,1.0,0.0,0.0,0.0,0.0,0.0,0.0,30.0
1752776074193,0.0,-8.81,-111.94,0.09,-0.05,-0.09,0.0,0.0,0.0,1.0,0.0,0.0,0.0,0.0,0.0,0.0,30.0
1752776074232,0.0,-8.81,-111.94,0.1,-0.03,-0.06,0.0,0.0,0.0,1.0,0.0,0.0,0.0,0.0,0.0,0.0,30.0
1752776074270,0.0,-8.81,-111.94,0.11,-0.05,-0.09,0.0,0.0,0.0,1.0,0.0,0.0,0.0,0.0,0.0,0.0,30.0
1752776074304,0.0,-8.81,-111.94,0.09,-0.03,-0.12,0.0,0.0,0.0,1.0,0.0,0.0,0.0,0.0,0.0,0.0,30.0
1752776074441,0.0,-8.81,-111.94,0.09,-0.03,-0.07,0.0,0.0,0.0,1.0,0.0,0.0,0.0,0.0,0.0,0.0,30.0
1752776074474,0.0,-8.81,-111.94,0.11,-0.01,-0.08,0.0,0.0,0.0,1.0,0.0,0.0,0.0,0.0,0.0,0.0,30.0
1752776074512,0.0,-8.81,-111.94,0.1,-0.04,-0.09,0.0,0.0,0.0,1.0,0.0,0.0,0.0,0.0,0.0,0.0,30.0
1752776074545,0.0,-8.81,-111.94,0.1,-0.04,-0.06,0.0,0.0,0.0,1.0,0.0,0.0,0.0,0.0,0.0,0.0,30.0
1752776074583,0.0,-8.81,-111.94,0.12,-0.03,-0.09,0.0,0.0,0.0,1.0,0.0,0.0,0.0,0.0,0.0,0.0,30.0
1752776074619,0.0,-8.81,-111.94,0.1,-0.03,-0.08,0.0,0.0,0.0,1.0,0.0,0.0,0.0,0.0,0.0,0.0,30.0
1752776074666,0.0,-8.81,-111.94,0.09,-0.04,-0.11,0.0,0.0,0.0,1.0,0.0,0.0,0.0,0.0,0.0,0.0,30.0
1752776074693,0.0,-8.81,-111.94,0.11,-0.04,-0.08,0.0,0.0,0.0,1.0,0.0,0.0,0.0,0.0,0.0,0.0,30.0
1752776074733,0.0,-8.81,-111.94,0.09,-0.05,-0.08,0.0,0.0,0.0,1.0,0.0,0.0,0.0,0.0,0.0,0.0,30.0
1752776074769,0.0,-8.81,-111.94,0.1,-0.05,-0.1,0.0,0.0,0.0,1.0,0.0,0.0,0.0,0.0,0.0,0.0,30.0
1752776074808,0.0,-8.81,-111.94,0.09,-0.04,-0.09,0.0,0.0,0.0,1.0,0.0,0.0,0.0,0.0,0.0,0.0,30.0
1752776074844,0.0,-8.81,-111.94,0.1,-0.04,-0.1,0.0,0.0,0.0,1.0,0.0,0.0,0.0,0.0,0.0,0.0,30.0
1752776074876,0.0,-8.81,-111.94,0.09,-0.04,-0.08,0.0,0.0,0.0,1.0,0.0,0.0,0.0,0.0,0.0,0.0,30.0
1752776075016,0.0,-8.81,-111.94,0.1,-0.03,-0.08,0.0,0.0,0.0,1.0,0.0,0.0,0.0,0.0,0.0,0.0,30.0
1752776075083,0.0,-8.81,-111.94,0.1,-0.06,-0.07,0.0,0.0,0.0,1.0,0.0,0.0,0.0,0.0,0.0,0.0,30.0
1752776075283,0.0,-8.81,-111.94,0.1,-0.04,-0.08,0.0,0.0,0.0,1.0,0.0,0.0,0.0,0.0,0.0,0.0,30.0
1752776075629,0.0,-8.81,-111.94,0.11,-0.04,-0.08,0.0,0.0,0.0,1.0,0.0,0.0,0.0,0.0,0.0,0.0,30.0
1752776075759,0.0,-8.81,-111.94,0.09,-0.04,-0.1,0.0,0.0,0.0,1.0,0.0,0.0,0.0,0.0,0.0,0.0,30.0
1752776075795,0.0,-8.81,-111.94,0.09,-0.04,-0.06,0.0,0.0,0.0,1.0,0.0,0.0,0.0,0.0,0.0,0.0,30.0
1752776075830,0.0,-8.81,-111.94,0.11,-0.04,-0.07,0.0,0.0,0.0,1.0,0.0,0.0,0.0,0.0,0.0,0.0,30.0
1752776075865,0.0,-8.81,-111.94,0.09,-0.05,-0.09,0.0,0.0,0.0,1.0,0.0,0.0,0.0,0.0,0.0,0.0,30.0
1752776075897,0.0,-8.81,-111.94,0.09,-0.02,-0.06,0.0,0.0,0.0,1.0,0.0,0.0,0.0,0.0,0.0,0.0,30.0
1752776076337,0.0,-8.81,-111.94,0.08,-0.04,-0.06,0.0,0.0,0.0,1.0,0.0,0.0,0.0,0.0,0.0,0.0,30.0
1752776076473,0.0,-8.81,-111.94,0.09,-0.05,-0.06,0.0,0.0,0.0,1.0,0.0,0.0,0.0,0.0,0.0,0.0,30.0
1752776076612,0.0,-8.81,-111.94,0.1,-0.06,-0.11,0.0,0.0,0.0,1.0,0.0,0.0,0.0,0.0,0.0,0.0,30.0
1752776076649,0.0,-8.81,-111.94,0.11,-0.05,-0.05,0.0,0.0,0.0,1.0,0.0,0.0,0.0,0.0,0.0,0.0,30.0
1752776076796,0.0,-8.81,-111.94,0.1,-0.06,-0.06,0.0,0.0,0.0,1.0,0.0,0.0,0.0,0.0,0.0,0.0,30.0
1752776076824,0.0,-8.81,-111.94,0.1,-0.04,-0.09,0.0,0.0,0.0,1.0,0.0,0.0,0.0,0.0,0.0,0.0,30.0
1752776076861,0.0,-8.81,-111.94,0.09,-0.04,-0.09,0.0,0.0,0.0,1.0,0.0,0.0,0.0,0.0,0.0,0.0,30.0
1752776076998,0.0,-8.81,-111.94,0.08,-0.05,-0.05,0.0,0.0,0.0,1.0,0.0,0.0,0.0,0.0,0.0,0.0,30.0
1752776077055,0.0,-8.81,-111.94,0.08,-0.04,-0.08,0.0,0.0,0.0,1.0,0.0,0.0,0.0,0.0,0.0,0.0,30.0
1752776077069,0.0,-8.81,-111.94,0.08,-0.04,-0.05,0.0,0.0,0.0,1.0,0.0,0.0,0.0,0.0,0.0,0.0,30.0
1752776077111,0.0,-8.81,-111.94,0.09,-0.03,-0.08,0.0,0.0,0.0,1.0,0.0,0.0,0.0,0.0,0.0,0.0,30.0
1752776077248,0.0,-8.81,-111.94,0.06,-0.04,-0.06,0.0,0.0,0.0,1.0,0.0,0.0,0.0,0.0,0.0,0.0,30.0
1752776077271,0.0,-8.81,-111.94,0.1,-0.05,-0.07,0.0,0.0,0.0,1.0,0.0,0.0,0.0,0.0,0.0,0.0,30.0
1752776077307,0.0,-8.81,-111.94,0.1,-0.02,-0.09,0.0,0.0,0.0,1.0,0.0,0.0,0.0,0.0,0.0,0.0,30.0
1752776077343,0.0,-8.81,-111.94,0.1,-0.06,-0.06,0.0,0.0,0.0,1.0,0.0,0.0,0.0,0.0,0.0,0.0,30.0
1752776077386,0.0,-8.81,-111.94,0.09,-0.04,-0.1,0.0,0.0,0.0,1.0,0.0,0.0,0.0,0.0,0.0,0.0,30.0
1752776077444,0.0,-8.81,-111.94,0.12,-0.05,-0.09,0.0,0.0,0.0,1.0,0.0,0.0,0.0,0.0,0.0,0.0,30.0
1752776077450,0.0,-8.81,-111.94,0.09,-0.02,-0.1,0.0,0.0,0.0,1.0,0.0,0.0,0.0,0.0,0.0,0.0,30.0
1752776077490,0.0,-8.81,-111.94,0.1,-0.03,-0.05,0.0,0.0,0.0,1.0,0.0,0.0,0.0,0.0,0.0,0.0,30.0
1752776077521,0.0,-8.81,-111.94,0.11,-0.04,-0.11,0.0,0.0,0.0,1.0,0.0,0.0,0.0,0.0,0.0,0.0,30.0
1752776077553,0.0,-8.81,-111.94,0.1,-0.05,-0.07,0.0,0.0,0.0,1.0,0.0,0.0,0.0,0.0,0.0,0.0,30.0
1752776077592,0.0,-8.81,-111.94,0.09,-0.04,-0.07,0.0,0.0,0.0,1.0,0.0,0.0,0.0,0.0,0.0,0.0,30.0
1752776077631,0.0,-8.81,-111.94,0.11,-0.04,-0.09,0.0,0.0,0.0,1.0,0.0,0.0,0.0,0.0,0.0,0.0,30.0
1752776077665,0.0,-8.81,-112.0,0.09,-0.05,-0.09,0.0,0.0,0.0,1.0,0.0,0.0,0.0,0.0,0.0,0.0,30.0
1752776077702,0.0,-8.81,-112.0,0.11,-0.03,-0.12,0.0,0.0,0.0,1.0,0.0,0.0,0.0,0.0,0.0,0.0,30.0
1752776077742,0.0,-8.81,-111.94,0.08,-0.03,-0.08,0.0,0.0,0.0,1.0,0.0,0.0,0.0,0.0,0.0,0.0,30.0
1752776077895,0.0,-8.81,-111.94,0.09,-0.05,-0.08,0.0,0.0,0.0,1.0,0.0,0.0,0.0,0.0,0.0,0.0,30.0
1752776077915,0.0,-8.81,-111.94,0.08,-0.03,-0.07,0.0,0.0,0.0,1.0,0.0,0.0,0.0,0.0,0.0,0.0,30.0
1752776077951,0.0,-8.81,-111.94,0.1,-0.04,-0.11,0.0,0.0,0.0,1.0,0.0,0.0,0.0,0.0,0.0,0.0,30.0
1752776077988,0.0,-8.81,-111.94,0.09,-0.03,-0.05,0.0,0.0,0.0,1.0,0.0,0.0,0.0,0.0,0.0,0.0,30.0
1752776078243,0.0,-8.88,-112.0,0.11,-0.04,-0.12,0.0,0.0,0.0,1.0,0.0,0.0,0.0,0.0,0.0,0.0,30.0
1752776078275,0.0,-8.88,-112.0,0.09,-0.05,-0.1,0.0,0.0,0.0,1.0,0.0,0.0,0.0,0.0,0.0,0.0,30.0
1752776078304,0.0,-8.88,-112.0,0.11,-0.05,-0.06,0.0,0.0,0.0,1.0,0.0,0.0,0.0,0.0,0.0,0.0,30.0
1752776078345,0.0,-8.88,-112.0,0.1,-0.03,-0.07,0.0,0.0,0.0,1.0,0.0,0.0,0.0,0.0,0.0,0.0,30.0
1752776078388,0.0,-8.88,-112.0,0.11,-0.05,-0.12,0.0,0.0,0.0,1.0,0.0,0.0,0.0,0.0,0.0,0.0,30.0
1752776078425,0.0,-8.88,-112.0,0.08,-0.03,-0.08,0.0,0.0,0.0,1.0,0.0,0.0,0.0,0.0,0.0,0.0,30.0
1752776078556,0.0,-8.88,-112.0,0.1,-0.05,-0.09,0.0,0.0,0.0,1.0,0.0,0.0,0.0,0.0,0.0,0.0,30.0
1752776078702,0.0,-8.88,-112.0,0.1,-0.03,-0.08,0.0,0.0,0.0,1.0,0.0,0.0,0.0,0.0,0.0,0.0,30.0
1752776078840,0.0,-8.88,-112.0,0.12,-0.04,-0.09,0.0,0.0,0.0,1.0,0.0,0.0,0.0,0.0,0.0,0.0,30.0
1752776078887,0.0,-8.88,-112.0,0.11,-0.03,-0.08,0.0,0.0,0.0,1.0,0.0,0.0,0.0,0.0,0.0,0.0,30.0
1752776078907,0.0,-8.88,-112.0,0.1,-0.03,-0.08,0.0,0.0,0.0,1.0,0.0,0.0,0.0,0.0,0.0,0.0,30.0
1752776078954,0.0,-8.88,-112.0,0.11,-0.05,-0.06,0.0,0.0,0.0,1.0,0.0,0.0,0.0,0.0,0.0,0.0,30.0
1752776079086,0.0,-8.88,-112.0,0.09,-0.03,-0.1,0.0,0.0,0.0,1.0,0.0,0.0,0.0,0.0,0.0,0.0,30.0
1752776079126,0.0,-8.88,-112.0,0.1,-0.04,-0.11,0.0,0.0,0.0,1.0,0.0,0.0,0.0,0.0,0.0,0.0,30.0
1752776079158,0.0,-8.88,-112.0,0.1,-0.02,-0.1,0.0,0.0,0.0,1.0,0.0,0.0,0.0,0.0,0.0,0.0,30.0
1752776079198,0.0,-8.88,-112.0,0.11,-0.05,-0.08,0.0,0.0,0.0,1.0,0.0,0.0,0.0,0.0,0.0,0.0,30.0
1752776079335,0.0,-8.88,-112.0,0.1,-0.04,-0.09,0.0,0.0,0.0,1.0,0.0,0.0,0.0,0.0,0.0,0.0,30.0
1752776079373,0.0,-8.88,-112.0,0.1,-0.03,-0.12,0.0,0.0,0.0,1.0,0.0,0.0,0.0,0.0,0.0,0.0,30.0
1752776079514,0.0,-8.88,-112.0,0.1,-0.04,-0.07,0.0,0.0,0.0,1.0,0.0,0.0,0.0,0.0,0.0,0.0,30.0
1752776079648,0.0,-8.88,-112.0,0.11,-0.05,-0.11,0.0,0.0,0.0,1.0,0.0,0.0,0.0,0.0,0.0,0.0,30.0
1752776079686,0.0,-8.88,-111.94,0.09,-0.01,-0.08,0.0,0.0,0.0,1.0,0.0,0.0,0.0,0.0,0.0,0.0,30.0
1752776079720,0.0,-8.88,-112.0,0.12,-0.05,-0.13,0.0,0.0,0.0,1.0,0.0,0.0,0.0,0.0,0.0,0.0,30.0
1752776079770,0.0,-8.88,-111.94,0.1,-0.06,-0.08,0.0,0.0,0.0,1.0,0.0,0.0,0.0,0.0,0.0,0.0,30.0
1752776079801,0.0,-8.88,-111.94,0.1,-0.02,-0.07,0.0,0.0,0.0,1.0,0.0,0.0,0.0,0.0,0.0,0.0,30.0
1752776079837,0.0,-8.88,-111.94,0.11,-0.03,-0.08,0.0,0.0,0.0,1.0,0.0,0.0,0.0,0.0,0.0,0.0,30.0
1752776079871,0.0,-8.88,-111.94,0.11,-0.03,-0.08,0.0,0.0,0.0,1.0,0.0,0.0,0.0,0.0,0.0,0.0,30.0
1752776079907,0.0,-8.88,-111.94,0.1,-0.07,-0.08,0.0,0.0,0.0,1.0,0.0,0.0,0.0,0.0,0.0,0.0,30.0
1752776079940,0.0,-8.88,-111.94,0.11,-0.04,-0.06,0.0,0.0,0.0,1.0,0.0,0.0,0.0,0.0,0.0,0.0,30.0
1752776079979,0.0,-8.88,-111.94,0.12,-0.03,-0.1,0.0,0.0,0.0,1.0,0.0,0.0,0.0,0.0,0.0,0.0,30.0
1752776080032,0.0,-8.88,-111.94,0.1,-0.02,-0.05,0.0,0.0,0.0,1.0,0.0,0.0,0.0,0.0,0.0,0.0,30.0
1752776080160,0.0,-8.88,-111.94,0.12,-0.03,-0.08,0.0,0.0,0.0,1.0,0.0,0.0,0.0,0.0,0.0,0.0,30.0
1752776080210,0.0,-8.88,-111.94,0.1,-0.03,-0.08,0.0,0.0,0.0,1.0,0.0,0.0,0.0,0.0,0.0,0.0,30.0
1752776080445,0.0,-8.88,-111.94,0.11,-0.06,-0.09,0.0,0.0,0.0,1.0,0.0,0.0,0.0,0.0,0.0,0.0,30.0
1752776080478,0.0,-8.88,-111.94,0.12,-0.02,-0.08,0.0,0.0,0.0,1.0,0.0,0.0,0.0,0.0,0.0,0.0,30.0
1752776080612,0.0,-8.88,-111.94,0.1,-0.04,-0.1,0.0,0.0,0.0,1.0,0.0,0.0,0.0,0.0,0.0,0.0,30.0
1752776080754,0.0,-8.88,-111.94,0.1,-0.05,-0.09,0.0,0.0,0.0,1.0,0.0,0.0,0.0,0.0,0.0,0.0,30.0
1752776080794,0.0,-8.88,-111.94,0.1,-0.03,-0.08,0.0,0.0,0.0,1.0,0.0,0.0,0.0,0.0,0.0,0.0,30.0
1752776080830,0.0,-8.88,-111.94,0.1,-0.03,-0.1,0.0,0.0,0.0,1.0,0.0,0.0,0.0,0.0,0.0,0.0,30.0
1752776080964,0.0,-8.88,-111.94,0.11,-0.05,-0.09,0.0,0.0,0.0,1.0,0.0,0.0,0.0,0.0,0.0,0.0,30.0
1752776080998,0.0,-8.88,-111.94,0.1,-0.05,-0.03,0.0,0.0,0.0,1.0,0.0,0.0,0.0,0.0,0.0,0.0,30.0
1752776081047,0.0,-8.88,-111.94,0.1,-0.02,-0.09,0.0,0.0,0.0,1.0,0.0,0.0,0.0,0.0,0.0,0.0,30.0
1752776081064,0.0,-8.88,-111.94,0.1,-0.04,-0.1,0.0,0.0,0.0,1.0,0.0,0.0,0.0,0.0,0.0,0.0,30.0
1752776081114,0.0,-8.88,-111.94,0.1,-0.04,-0.09,0.0,0.0,0.0,1.0,0.0,0.0,0.0,0.0,0.0,0.0,30.0
1752776081144,0.0,-8.88,-111.94,0.1,-0.03,-0.09,0.0,0.0,0.0,1.0,0.0,0.0,0.0,0.0,0.0,0.0,30.0
1752776081181,0.0,-8.88,-111.94,0.12,-0.04,-0.14,0.0,0.0,0.0,1.0,0.0,0.0,0.0,0.0,0.0,0.0,30.0
1752776081214,0.0,-8.88,-111.94,0.1,-0.04,-0.1,0.0,0.0,0.0,1.0,0.0,0.0,0.0,0.0,0.0,0.0,30.0
1752776081255,0.0,-8.88,-111.94,0.1,-0.02,-0.1,0.0,0.0,0.0,1.0,0.0,0.0,0.0,0.0,0.0,0.0,30.0
1752776081298,0.0,-8.88,-111.94,0.1,-0.04,-0.13,0.0,0.0,0.0,1.0,0.0,0.0,0.0,0.0,0.0,0.0,30.0
1752776081332,0.0,-8.88,-111.94,0.1,-0.05,-0.1,0.0,0.0,0.0,1.0,0.0,0.0,0.0,0.0,0.0,0.0,30.0
1752776081363,0.0,-8.88,-111.94,0.12,-0.05,-0.08,0.0,0.0,0.0,1.0,0.0,0.0,0.0,0.0,0.0,0.0,30.0
1752776081416,0.0,-8.88,-111.94,0.1,-0.03,-0.06,0.0,0.0,0.0,1.0,0.0,0.0,0.0,0.0,0.0,0.0,30.0
1752776081645,0.0,-8.88,-111.94,0.11,-0.05,-0.08,0.0,0.0,0.0,1.0,0.0,0.0,0.0,0.0,0.0,0.0,30.0
1752776081683,0.0,-8.88,-111.94,0.09,-0.05,-0.11,0.0,0.0,0.0,1.0,0.0,0.0,0.0,0.0,0.0,0.0,30.0
1752776081716,0.0,-8.88,-111.94,0.12,-0.03,-0.09,0.0,0.0,0.0,1.0,0.0,0.0,0.0,0.0,0.0,0.0,30.0
1752776081753,0.0,-8.88,-111.94,0.11,-0.04,-0.07,0.0,0.0,0.0,1.0,0.0,0.0,0.0,0.0,0.0,0.0,30.0
1752776081898,0.0,-8.88,-111.94,0.11,-0.03,-0.09,0.0,0.0,0.0,1.0,0.0,0.0,0.0,0.0,0.0,0.0,30.0
1752776081929,0.0,-8.88,-111.94,0.1,-0.02,-0.1,0.0,0.0,0.0,1.0,0.0,0.0,0.0,0.0,0.0,0.0,30.0
1752776081968,0.0,-8.88,-111.94,0.11,-0.05,-0.09,0.0,0.0,0.0,1.0,0.0,0.0,0.0,0.0,0.0,0.0,30.0
1752776082010,0.0,-8.88,-111.94,0.09,-0.06,-0.08,0.0,0.0,0.0,1.0,0.0,0.0,0.0,0.0,0.0,0.0,30.0
1752776082052,0.0,-8.88,-111.94,0.11,-0.04,-0.11,0.0,0.0,0.0,1.0,0.0,0.0,0.0,0.0,0.0,0.0,30.0
1752776082295,0.0,-8.88,-111.94,0.11,-0.05,-0.09,0.0,0.0,0.0,1.0,0.0,0.0,0.0,0.0,0.0,0.0,30.0
1752776082322,0.0,-8.88,-111.94,0.11,-0.03,-0.09,0.0,0.0,0.0,1.0,0.0,0.0,0.0,0.0,0.0,0.0,30.0
1752776082364,0.0,-8.88,-111.94,0.09,-0.03,-0.1,0.0,0.0,0.0,1.0,0.0,0.0,0.0,0.0,0.0,0.0,30.0
1752776082398,0.0,-8.88,-111.94,0.1,-0.03,-0.08,0.0,0.0,0.0,1.0,0.0,0.0,0.0,0.0,0.0,0.0,30.0
1752776082431,0.0,-8.88,-111.94,0.11,-0.05,-0.11,0.0,0.0,0.0,1.0,0.0,0.0,0.0,0.0,0.0,0.0,30.0
1752776082565,0.0,-8.88,-111.94,0.1,-0.05,-0.09,0.0,0.0,0.0,1.0,0.0,0.0,0.0,0.0,0.0,0.0,30.0
1752776082606,0.0,-8.88,-111.94,0.09,-0.04,-0.1,0.0,0.0,0.0,1.0,0.0,0.0,0.0,0.0,0.0,0.0,30.0
1752776082644,0.0,-8.88,-111.94,0.1,-0.02,-0.11,0.0,0.0,0.0,1.0,0.0,0.0,0.0,0.0,0.0,0.0,30.0
1752776082679,0.0,-8.88,-111.94,0.12,-0.07,-0.1,0.0,0.0,0.0,1.0,0.0,0.0,0.0,0.0,0.0,0.0,30.0
1752776082715,0.0,-8.88,-111.94,0.09,-0.06,-0.09,0.0,0.0,0.0,1.0,0.0,0.0,0.0,0.0,0.0,0.0,30.0
1752776082763,0.0,-8.88,-111.94,0.12,-0.03,-0.08,0.0,0.0,0.0,1.0,0.0,0.0,0.0,0.0,0.0,0.0,30.0
1752776082897,0.0,-8.88,-111.94,0.09,-0.05,-0.09,0.0,0.0,0.0,1.0,0.0,0.0,0.0,0.0,0.0,0.0,30.0
1752776083046,0.0,-8.88,-111.94,0.1,-0.04,-0.13,0.0,0.0,0.0,1.0,0.0,0.0,0.0,0.0,0.0,0.0,30.0
1752776083081,0.0,-8.88,-111.94,0.09,-0.03,-0.11,0.0,0.0,0.0,1.0,0.0,0.0,0.0,0.0,0.0,0.0,30.0
1752776083116,0.0,-8.88,-111.94,0.1,-0.06,-0.09,0.0,0.0,0.0,1.0,0.0,0.0,0.0,0.0,0.0,0.0,30.0
1752776083151,0.0,-8.88,-111.94,0.1,-0.02,-0.09,0.0,0.0,0.0,1.0,0.0,0.0,0.0,0.0,0.0,0.0,30.0
1752776083182,0.0,-8.88,-111.94,0.1,-0.04,-0.14,0.0,0.0,0.0,1.0,0.0,0.0,0.0,0.0,0.0,0.0,30.0
1752776083220,0.0,-8.88,-111.94,0.1,-0.05,-0.07,0.0,0.0,0.0,1.0,0.0,0.0,0.0,0.0,0.0,0.0,30.0
1752776083357,0.0,-8.88,-111.94,0.11,-0.05,-0.1,0.0,0.0,0.0,1.0,0.0,0.0,0.0,0.0,0.0,0.0,30.0
1752776083496,0.0,-8.88,-111.94,0.12,-0.05,-0.11,0.0,0.0,0.0,1.0,0.0,0.0,0.0,0.0,0.0,0.0,30.0
1752776083530,0.0,-8.88,-111.94,0.09,-0.03,-0.1,0.0,0.0,0.0,1.0,0.0,0.0,0.0,0.0,0.0,0.0,30.0
1752776083567,0.0,-8.88,-111.94,0.1,-0.03,-0.1,0.0,0.0,0.0,1.0,0.0,0.0,0.0,0.0,0.0,0.0,30.0
1752776083600,0.0,-8.88,-111.94,0.1,-0.05,-0.09,0.0,0.0,0.0,1.0,0.0,0.0,0.0,0.0,0.0,0.0,30.0
1752776083738,0.0,-8.88,-111.94,0.09,-0.05,-0.1,0.0,0.0,0.0,1.0,0.0,0.0,0.0,0.0,0.0,0.0,30.0
1752776083770,0.0,-8.88,-111.94,0.09,-0.05,-0.1,0.0,0.0,0.0,1.0,0.0,0.0,0.0,0.0,0.0,0.0,30.0
1752776083808,0.0,-8.88,-111.94,0.1,-0.05,-0.07,0.0,0.0,0.0,1.0,0.0,0.0,0.0,0.0,0.0,0.0,30.0
1752776083847,0.0,-8.88,-112.0,0.09,-0.04,-0.07,0.0,0.0,0.0,1.0,0.0,0.0,0.0,0.0,0.0,0.0,30.0
1752776083882,0.0,-8.88,-111.94,0.12,-0.04,-0.12,0.0,0.0,0.0,1.0,0.0,0.0,0.0,0.0,0.0,0.0,30.0
1752776084024,0.0,-8.88,-112.0,0.11,-0.05,-0.08,0.0,0.0,0.0,1.0,0.0,0.0,0.0,0.0,0.0,0.0,30.0
1752776084060,0.0,-8.88,-112.0,0.11,-0.05,-0.1,0.0,0.0,0.0,1.0,0.0,0.0,0.0,0.0,0.0,0.0,30.0
1752776084098,0.0,-8.88,-112.0,0.1,-0.05,-0.09,0.0,0.0,0.0,1.0,0.0,0.0,0.0,0.0,0.0,0.0,30.0
1752776084132,0.0,-8.88,-112.0,0.1,-0.03,-0.11,0.0,0.0,0.0,1.0,0.0,0.0,0.0,0.0,0.0,0.0,30.0
1752776084170,0.0,-8.88,-112.0,0.09,-0.04,-0.09,0.0,0.0,0.0,1.0,0.0,0.0,0.0,0.0,0.0,0.0,30.0
1752776084210,0.0,-8.88,-112.0,0.11,-0.04,-0.08,0.0,0.0,0.0,1.0,0.0,0.0,0.0,0.0,0.0,0.0,30.0
1752776084249,0.0,-8.88,-112.0,0.09,-0.06,-0.09,0.0,0.0,0.0,1.0,0.0,0.0,0.0,0.0,0.0,0.0,30.0
1752776084283,0.0,-8.88,-112.0,0.1,-0.04,-0.09,0.0,0.0,0.0,1.0,0.0,0.0,0.0,0.0,0.0,0.0,30.0
1752776084320,0.0,-8.88,-112.0,0.1,-0.06,-0.07,0.0,0.0,0.0,1.0,0.0,0.0,0.0,0.0,0.0,0.0,30.0
1752776084360,0.0,-8.88,-112.0,0.1,-0.04,-0.1,0.0,0.0,0.0,1.0,0.0,0.0,0.0,0.0,0.0,0.0,30.0
1752776084504,0.0,-8.88,-112.0,0.11,-0.05,-0.09,0.0,0.0,0.0,1.0,0.0,0.0,0.0,0.0,0.0,0.0,30.0
1752776084736,0.0,-8.88,-112.0,0.11,-0.06,-0.1,0.0,0.0,0.0,1.0,0.0,0.0,0.0,0.0,0.0,0.0,30.0
1752776084778,0.0,-8.88,-111.94,0.12,-0.04,-0.11,0.0,0.0,0.0,1.0,0.0,0.0,0.0,0.0,0.0,0.0,30.0
1752776084812,0.0,-8.88,-112.0,0.11,-0.05,-0.08,0.0,0.0,0.0,1.0,0.0,0.0,0.0,0.0,0.0,0.0,30.0
1752776084846,0.0,-8.88,-111.94,0.11,-0.05,-0.13,0.0,0.0,0.0,1.0,0.0,0.0,0.0,0.0,0.0,0.0,30.0
1752776084879,0.0,-8.88,-111.94,0.09,-0.04,-0.11,0.0,0.0,0.0,1.0,0.0,0.0,0.0,0.0,0.0,0.0,30.0
1752776084913,0.0,-8.88,-112.0,0.11,-0.01,-0.12,0.0,0.0,0.0,1.0,0.0,0.0,0.0,0.0,0.0,0.0,30.0
1752776084947,0.0,-8.88,-111.94,0.11,-0.03,-0.07,0.0,0.0,0.0,1.0,0.0,0.0,0.0,0.0,0.0,0.0,30.0
1752776085085,0.0,-8.88,-112.0,0.13,-0.01,-0.1,0.0,0.0,0.0,1.0,0.0,0.0,0.0,0.0,0.0,0.0,30.0
1752776085122,0.0,-8.88,-111.94,0.12,-0.03,-0.08,0.0,0.0,0.0,1.0,0.0,0.0,0.0,0.0,0.0,0.0,30.0
1752776085265,0.06,-8.88,-111.94,0.11,-0.06,-0.13,0.0,0.0,0.0,1.0,0.0,0.0,0.0,0.0,0.0,0.0,30.0
1752776085318,0.06,-8.88,-112.0,0.11,-0.04,-0.06,0.0,0.0,0.0,1.0,0.0,0.0,0.0,0.0,0.0,0.0,30.0
1752776085350,0.06,-8.88,-111.94,0.1,-0.05,-0.09,0.0,0.0,0.0,1.0,0.0,0.0,0.0,0.0,0.0,0.0,30.0
1752776085379,0.06,-8.88,-112.0,0.11,-0.04,-0.07,0.0,0.0,0.0,1.0,0.0,0.0,0.0,0.0,0.0,0.0,30.0
1752776085424,0.06,-8.88,-112.0,0.12,-0.04,-0.13,0.0,0.0,0.0,1.0,0.0,0.0,0.0,0.0,0.0,0.0,30.0
1752776085470,0.06,-8.88,-112.0,0.1,-0.04,-0.05,0.0,0.0,0.0,1.0,0.0,0.0,0.0,0.0,0.0,0.0,30.0
1752776085495,0.06,-8.88,-112.0,0.11,-0.05,-0.11,0.0,0.0,0.0,1.0,0.0,0.0,0.0,0.0,0.0,0.0,30.0
1752776085525,0.06,-8.88,-111.94,0.1,-0.02,-0.08,0.0,0.0,0.0,1.0,0.0,0.0,0.0,0.0,0.0,0.0,30.0
1752776085672,0.06,-8.88,-112.0,0.1,-0.05,-0.11,0.0,0.0,0.0,1.0,0.0,0.0,0.0,0.0,0.0,0.0,30.0
1752776085706,0.06,-8.88,-112.0,0.09,-0.03,-0.1,0.0,0.0,0.0,1.0,0.0,0.0,0.0,0.0,0.0,0.0,30.0
1752776085752,0.06,-8.88,-112.0,0.1,-0.06,-0.09,0.0,0.0,0.0,1.0,0.0,0.0,0.0,0.0,0.0,0.0,30.0
1752776085777,0.06,-8.88,-112.0,0.1,-0.06,-0.05,0.0,0.0,0.0,1.0,0.0,0.0,0.0,0.0,0.0,0.0,30.0
1752776085826,0.06,-8.88,-112.0,0.11,-0.07,-0.1,0.0,0.0,0.0,1.0,0.0,0.0,0.0,0.0,0.0,0.0,30.0
1752776085862,0.06,-8.88,-112.0,0.08,-0.05,-0.07,0.0,0.0,0.0,1.0,0.0,0.0,0.0,0.0,0.0,0.0,30.0
1752776085989,0.06,-8.88,-112.0,0.13,-0.05,-0.14,0.0,0.0,0.0,1.0,0.0,0.0,0.0,0.0,0.0,0.0,30.0
1752776086040,0.06,-8.88,-112.0,0.1,-0.05,-0.05,0.0,0.0,0.0,1.0,0.0,0.0,0.0,0.0,0.0,0.0,30.0
1752776086072,0.06,-8.88,-112.0,0.13,-0.05,-0.09,0.0,0.0,0.0,1.0,0.0,0.0,0.0,0.0,0.0,0.0,30.0
1752776086110,0.06,-8.88,-112.0,0.1,-0.04,-0.08,0.0,0.0,0.0,1.0,0.0,0.0,0.0,0.0,0.0,0.0,30.0
1752776086139,0.06,-8.88,-112.0,0.12,-0.02,-0.12,0.0,0.0,0.0,1.0,0.0,0.0,0.0,0.0,0.0,0.0,30.0
1752776086383,0.06,-8.88,-111.94,0.13,-0.03,-0.08,0.0,0.0,0.0,1.0,0.0,0.0,0.0,0.0,0.0,0.0,30.0
1752776086408,0.06,-8.88,-112.0,0.12,-0.07,-0.05,0.0,0.0,0.0,1.0,0.0,0.0,0.0,0.0,0.0,0.0,30.0
1752776086454,0.06,-8.88,-112.0,0.11,-0.04,-0.12,0.0,0.0,0.0,1.0,0.0,0.0,0.0,0.0,0.0,0.0,30.0
1752776086490,0.06,-8.88,-112.0,0.1,-0.09,-0.1,0.0,0.0,0.0,1.0,0.0,0.0,0.0,0.0,0.0,0.0,30.0
1752776086525,0.06,-8.88,-112.0,0.11,-0.05,-0.1,0.0,0.0,0.0,1.0,0.0,0.0,0.0,0.0,0.0,0.0,30.0
1752776086568,0.06,-8.88,-112.0,0.1,-0.03,-0.08,0.0,0.0,0.0,1.0,0.0,0.0,0.0,0.0,0.0,0.0,30.0
1752776086611,0.06,-8.88,-112.0,0.08,-0.05,-0.1,0.0,0.0,0.0,1.0,0.0,0.0,0.0,0.0,0.0,0.0,30.0
1752776086740,0.06,-8.88,-112.0,0.12,-0.04,-0.1,0.0,0.0,0.0,1.0,0.0,0.0,0.0,0.0,0.0,0.0,30.0
1752776086783,0.06,-8.88,-112.0,0.11,-0.05,-0.08,0.0,0.0,0.0,1.0,0.0,0.0,0.0,0.0,0.0,0.0,30.0
1752776086917,0.06,-8.88,-112.0,0.12,-0.03,-0.1,0.0,0.0,0.0,1.0,0.0,0.0,0.0,0.0,0.0,0.0,30.0
1752776086966,0.06,-8.88,-112.0,0.12,-0.05,-0.09,0.0,0.0,0.0,1.0,0.0,0.0,0.0,0.0,0.0,0.0,30.0
1752776086993,0.06,-8.88,-112.0,0.12,-0.03,-0.08,0.0,0.0,0.0,1.0,0.0,0.0,0.0,0.0,0.0,0.0,30.0
1752776087034,0.06,-8.88,-112.0,0.13,-0.05,-0.11,0.0,0.0,0.0,1.0,0.0,0.0,0.0,0.0,0.0,0.0,30.0
1752776087067,0.06,-8.88,-112.0,0.14,-0.04,-0.13,0.0,0.0,0.0,1.0,0.0,0.0,0.0,0.0,0.0,0.0,30.0
1752776087103,0.13,-8.94,-112.0,0.12,-0.06,-0.08,0.0,0.0,0.0,1.0,0.0,0.0,0.0,0.0,0.0,0.0,30.0
1752776087241,359.75,-9.75,-108.38,0.0,0.0,0.12,0.0,0.0,0.0,1.0,0.0,0.0,0.0,0.0,0.0,0.0,30.0
1752776087292,359.56,-10.44,-108.19,1.64,-0.16,-2.1,0.0,0.0,0.0,1.0,0.0,0.0,0.0,0.0,0.0,0.0,30.0
1752776087429,356.63,-11.13,-105.75,0.18,0.03,0.16,0.0,0.0,0.0,1.0,0.0,0.0,0.0,0.0,0.0,0.0,30.0
1752776087468,356.25,-11.13,-105.81,-0.38,-0.2,-0.22,0.0,0.0,0.0,1.0,0.0,0.0,0.0,0.0,0.0,0.0,30.0
1752776087505,355.81,-10.75,-106.25,0.03,-0.05,0.11,0.0,0.0,0.0,1.0,0.0,0.0,0.0,0.0,0.0,0.0,30.0
1752776087540,355.31,-10.25,-106.56,0.33,-0.15,-0.36,0.0,0.0,0.0,1.0,0.0,0.0,0.0,0.0,0.0,0.0,30.0
1752776087568,354.94,-10.31,-106.56,-0.66,0.09,0.79,0.0,0.0,0.0,1.0,0.0,0.0,0.0,0.0,0.0,0.0,30.0
1752776087702,352.94,-10.06,-108.13,0.09,-0.08,0.02,0.0,0.0,0.0,1.0,0.0,0.0,0.0,0.0,0.0,0.0,30.0
1752776087739,351.88,-10.0,-108.25,0.32,0.71,-0.78,0.0,0.0,0.0,1.0,0.0,0.0,0.0,0.0,0.0,0.0,30.0
1752776087777,350.69,-9.69,-108.0,0.16,0.18,-0.36,0.0,0.0,0.0,1.0,0.0,0.0,0.0,0.0,0.0,0.0,30.0
1752776087811,350.0,-9.5,-108.44,0.56,0.09,-0.63,0.0,0.0,0.0,1.0,0.0,0.0,0.0,0.0,0.0,0.0,30.0
1752776087849,350.5,-9.5,-108.94,-0.07,-0.14,-0.23,0.0,0.0,0.0,1.0,0.0,0.0,0.0,0.0,0.0,0.0,30.0
1752776087994,351.0,-9.44,-110.75,0.76,-0.11,-1.19,0.0,0.0,0.0,1.0,0.0,0.0,0.0,0.0,0.0,0.0,30.0
1752776088140,351.56,-10.0,-111.63,0.09,0.25,0.02,0.0,0.0,0.0,1.0,0.0,0.0,0.0,0.0,0.0,0.0,30.0
1752776088176,351.94,-10.25,-111.44,0.21,-0.05,0.09,0.0,0.0,0.0,1.0,0.0,0.0,0.0,0.0,0.0,0.0,30.0
1752776088212,352.06,-10.44,-111.38,0.03,0.0,0.01,0.0,0.0,0.0,1.0,0.0,0.0,0.0,0.0,0.0,0.0,30.0
1752776088364,352.0,-10.25,-111.81,0.08,-0.03,-0.04,0.0,0.0,0.0,1.0,0.0,0.0,0.0,0.0,0.0,0.0,30.0
1752776088494,352.0,-10.5,-111.94,0.07,-0.02,-0.01,0.0,0.0,0.0,1.0,0.0,0.0,0.0,0.0,0.0,0.0,30.0
1752776088533,352.0,-10.5,-111.94,0.07,0.0,-0.06,0.0,0.0,0.0,1.0,0.0,0.0,0.0,0.0,0.0,0.0,30.0
1752776088585,352.0,-10.56,-111.81,0.11,-0.04,-0.14,0.0,0.0,0.0,1.0,0.0,0.0,0.0,0.0,0.0,0.0,30.0
1752776088722,351.94,-10.44,-112.06,0.0,-0.04,0.12,0.0,0.0,0.0,1.0,0.0,0.0,0.0,0.0,0.0,0.0,30.0
1752776088775,351.75,-10.25,-112.38,0.07,0.0,0.01,0.0,0.0,0.0,1.0,0.0,0.0,0.0,0.0,0.0,0.0,30.0
1752776089107,351.19,-9.44,-113.19,0.09,0.0,-0.07,0.0,0.0,0.0,1.0,0.0,0.0,0.0,0.0,0.0,0.0,30.0
1752776089149,351.19,-9.44,-113.13,0.01,-0.02,0.06,0.0,0.0,0.0,1.0,0.0,0.0,0.0,0.0,0.0,0.0,30.0
1752776089198,351.19,-9.44,-113.13,0.11,-0.02,-0.06,0.0,0.0,0.0,1.0,0.0,0.0,0.0,0.0,0.0,0.0,30.0
1752776089225,351.5,-9.81,-112.31,0.05,0.01,0.06,0.0,0.0,0.0,1.0,0.0,0.0,0.0,0.0,0.0,0.0,30.0
1752776089370,352.69,-9.88,-110.25,0.08,0.08,0.48,0.0,0.0,0.0,1.0,0.0,0.0,0.0,0.0,0.0,0.0,30.0
1752776089404,352.94,-9.94,-108.88,0.07,0.05,0.25,0.0,0.0,0.0,1.0,0.0,0.0,0.0,0.0,0.0,0.0,30.0
1752776089438,352.5,-9.75,-107.63,-0.28,0.09,0.21,0.0,0.0,0.0,1.0,0.0,0.0,0.0,0.0,0.0,0.0,30.0
1752776089479,352.13,-9.5,-106.88,0.28,0.85,-0.77,0.0,0.0,0.0,1.0,0.0,0.0,0.0,0.0,0.0,0.0,30.0
1752776089544,353.0,-10.0,-106.38,-0.56,0.34,0.75,0.0,0.0,0.0,1.0,0.0,0.0,0.0,0.0,0.0,0.0,30.0
1752776089564,353.44,-10.81,-105.88,0.17,-0.32,-0.14,0.0,0.0,0.0,1.0,0.0,0.0,0.0,0.0,0.0,0.0,30.0
1752776089589,353.81,-11.13,-105.69,0.43,-0.32,-0.13,0.0,0.0,0.0,1.0,0.0,0.0,0.0,0.0,0.0,0.0,30.0
1752776089624,354.06,-11.25,-105.69,-0.23,0.39,0.33,0.0,0.0,0.0,1.0,0.0,0.0,0.0,0.0,0.0,0.0,30.0
1752776089662,354.31,-11.63,-105.81,0.25,0.13,-0.03,0.0,0.0,0.0,1.0,0.0,0.0,0.0,0.0,0.0,0.0,30.0
1752776089697,354.44,-11.81,-106.0,-0.09,-0.13,0.27,0.0,0.0,0.0,1.0,0.0,0.0,0.0,0.0,0.0,0.0,30.0
1752776089937,358.0,-14.88,-105.5,0.28,0.02,0.06,0.0,0.0,0.0,1.0,0.0,0.0,0.0,0.0,0.0,0.0,30.0
1752776089975,359.31,-16.0,-105.75,0.38,-0.14,0.15,0.0,0.0,0.0,1.0,0.0,0.0,0.0,0.0,0.0,0.0,30.0
1752776090014,0.13,-16.81,-105.69,-0.09,-0.55,0.11,0.0,0.0,0.0,1.0,0.0,0.0,0.0,0.0,0.0,0.0,30.0
1752776090048,0.69,-17.31,-105.75,0.04,0.35,-0.01,0.0,0.0,0.0,1.0,0.0,0.0,0.0,0.0,0.0,0.0,30.0
1752776090188,5.19,-20.88,-105.69,0.16,0.32,-0.03,0.0,0.0,0.0,1.0,0.0,0.0,0.0,0.0,0.0,0.0,30.0
1752776090231,6.31,-21.63,-105.94,0.6,-0.37,0.08,0.0,0.0,0.0,1.0,0.0,0.0,0.0,0.0,0.0,0.0,30.0
1752776090268,7.06,-22.0,-106.13,0.09,-0.46,0.25,0.0,0.0,0.0,1.0,0.0,0.0,0.0,0.0,0.0,0.0,30.0
1752776090314,7.81,-22.69,-105.94,-0.09,-0.06,0.07,0.0,0.0,0.0,1.0,0.0,0.0,0.0,0.0,0.0,0.0,30.0
1752776090350,8.94,-23.44,-106.13,0.15,0.46,-0.08,0.0,0.0,0.0,1.0,0.0,0.0,0.0,0.0,0.0,0.0,30.0
1752776090387,10.81,-24.94,-106.31,0.39,-0.11,0.15,0.0,0.0,0.0,1.0,0.0,0.0,0.0,0.0,0.0,0.0,30.0
1752776090640,20.69,-31.75,-105.5,0.0,0.22,0.04,0.0,0.0,0.0,1.0,0.0,0.0,0.0,0.0,0.0,0.0,30.0
1752776090773,27.31,-36.63,-105.5,0.76,-0.07,0.06,0.0,0.0,0.0,1.0,0.0,0.0,0.0,0.0,0.0,0.0,30.0
1752776090810,28.44,-37.63,-105.56,1.53,-1.37,-1.54,0.0,0.0,0.0,1.0,0.0,0.0,0.0,0.0,0.0,0.0,30.0
1752776090843,30.0,-38.5,-104.63,-0.38,0.82,0.53,0.0,0.0,0.0,1.0,0.0,0.0,0.0,0.0,0.0,0.0,30.0
1752776090878,33.06,-40.75,-104.13,0.43,-0.33,0.37,0.0,0.0,0.0,1.0,0.0,0.0,0.0,0.0,0.0,0.0,30.0
1752776090922,35.31,-42.31,-103.56,0.5,-1.03,0.36,0.0,0.0,0.0,1.0,0.0,0.0,0.0,0.0,0.0,0.0,30.0
1752776090964,36.44,-43.0,-103.06,0.04,-0.07,0.26,0.0,0.0,0.0,1.0,0.0,0.0,0.0,0.0,0.0,0.0,30.0
1752776090989,38.56,-44.56,-102.44,0.4,0.14,0.46,0.0,0.0,0.0,1.0,0.0,0.0,0.0,0.0,0.0,0.0,30.0
1752776091127,44.19,-48.13,-104.19,0.32,-0.38,0.15,0.0,0.0,0.0,1.0,0.0,0.0,0.0,0.0,0.0,0.0,30.0
1752776091161,45.56,-49.69,-105.31,-0.6,0.81,1.14,0.0,0.0,0.0,1.0,0.0,0.0,0.0,0.0,0.0,0.0,30.0
1752776091196,47.0,-50.94,-106.81,0.07,-0.43,-0.73,0.0,0.0,0.0,1.0,0.0,0.0,0.0,0.0,0.0,0.0,30.0
1752776091237,49.25,-52.44,-107.69,0.82,-0.32,0.24,0.0,0.0,0.0,1.0,0.0,0.0,0.0,0.0,0.0,0.0,30.0
1752776091373,56.5,-58.19,-111.25,-0.64,0.31,0.48,0.0,0.0,0.0,1.0,0.0,0.0,0.0,0.0,0.0,0.0,30.0
1752776091408,58.88,-60.44,-112.0,0.41,-0.1,0.29,0.0,0.0,0.0,1.0,0.0,0.0,0.0,0.0,0.0,0.0,30.0
1752776091442,60.69,-61.75,-113.31,0.61,0.21,-0.04,0.0,0.0,0.0,1.0,0.0,0.0,0.0,0.0,0.0,0.0,30.0
1752776091684,81.88,-71.75,-144.31,0.38,-0.09,0.13,0.0,0.0,0.0,1.0,0.0,0.0,0.0,0.0,0.0,0.0,30.0
1752776091823,91.44,-76.13,-163.19,0.1,0.42,-0.72,0.0,0.0,0.0,1.0,0.0,0.0,0.0,0.0,0.0,0.0,30.0
1752776091859,95.63,-77.63,-175.13,-0.28,0.27,-0.11,0.0,0.0,0.0,1.0,0.0,0.0,0.0,0.0,0.0,0.0,30.0
1752776091891,98.63,-78.5,174.31,0.35,-0.01,0.46,0.0,0.0,0.0,1.0,0.0,0.0,0.0,0.0,0.0,0.0,30.0
1752776091931,102.0,-78.44,162.44,0.07,0.61,0.17,0.0,0.0,0.0,1.0,0.0,0.0,0.0,0.0,0.0,0.0,30.0
1752776091978,105.31,-77.88,147.0,-0.14,0.0,-0.37,0.0,0.0,0.0,1.0,0.0,0.0,0.0,0.0,0.0,0.0,30.0
1752776092014,108.75,-76.25,135.19,-0.23,0.6,1.06,0.0,0.0,0.0,1.0,0.0,0.0,0.0,0.0,0.0,0.0,30.0
1752776095392,0.0,0.0,0.0,-8.76,-1.92,-2.11,0.0,0.0,0.0,1.0,0.0,0.0,0.0,0.0,0.0,0.0,0.0
1752776095520,359.94,-12.75,-109.56,0.0,0.0,0.0,0.0,0.0,0.0,1.0,0.0,0.0,0.0,0.0,0.0,0.0,30.0
1752776095558,359.94,-12.75,-109.63,0.11,-0.39,0.07,0.0,0.0,0.0,1.0,0.0,0.0,0.0,0.0,0.0,0.0,30.0
1752776095592,359.94,-12.75,-109.63,0.07,-0.38,0.09,0.0,0.0,0.0,1.0,0.0,0.0,0.0,0.0,0.0,0.0,30.0
1752776095658,359.94,-12.75,-109.63,0.1,-0.36,0.06,0.0,0.0,0.0,1.0,0.0,0.0,0.0,0.0,0.0,0.0,30.0
1752776095671,359.94,-12.75,-109.63,0.08,-0.36,0.12,0.0,0.0,0.0,1.0,0.0,0.0,0.0,0.0,0.0,0.0,30.0
1752776095714,359.94,-12.75,-109.69,0.12,-0.37,0.07,0.0,0.0,0.0,1.0,0.0,0.0,0.0,0.0,0.0,0.0,30.0
1752776095842,359.88,-12.75,-109.69,0.1,-0.38,0.12,0.0,0.0,0.0,1.0,0.0,0.0,0.0,0.0,0.0,0.0,30.0
1752776095982,359.88,-12.69,-109.75,0.09,-0.38,0.09,0.0,0.0,0.0,1.0,0.0,0.0,0.0,0.0,0.0,0.0,30.0
1752776096021,359.88,-12.69,-109.75,0.07,-0.37,0.19,0.0,0.0,0.0,1.0,0.0,0.0,0.0,0.0,0.0,0.0,30.0
1752776096060,359.88,-12.69,-109.81,0.12,-0.37,0.09,0.0,0.0,0.0,1.0,0.0,0.0,0.0,0.0,0.0,0.0,30.0
1752776096098,359.88,-12.69,-109.75,0.08,-0.36,0.18,0.0,0.0,0.0,1.0,0.0,0.0,0.0,0.0,0.0,0.0,30.0
