timestamp,heading,roll,pitch,acc_x,acc_y,acc_z,lin_acc_x,lin_acc_y,lin_acc_z,quat_w,quat_x,quat_y,quat_z,mag_x,mag_y,mag_z
1752780592211,99.0,-14.0,-19.0,-2.0,3.0,9.0,0.0,0.1,-0.1,-0.63,-0.2,0.04,0.75,0.0,0.0,0.0
1752780592211,99.0,-15.0,-19.0,-2.0,3.0,9.0,0.0,0.0,0.0,-0.63,-0.2,0.04,0.75,0.0,0.0,0.0
1752780592211,99.0,-15.0,-19.0,-2.0,3.0,9.0,0.1,0.1,-0.0,-0.63,-0.2,0.04,0.75,0.0,0.0,0.0
1752780592211,99.0,-15.0,-19.0,-2.0,3.0,9.0,0.0,0.1,-0.0,-0.63,-0.2,0.04,0.75,0.0,0.0,0.0
1752780592212,99.0,-15.0,-19.0,-2.0,3.0,9.0,0.0,0.1,-0.1,-0.63,-0.2,0.04,0.75,0.0,0.0,0.0
1752780592346,99.0,-15.0,-19.0,-2.0,3.0,9.0,0.0,0.1,-0.0,-0.63,-0.2,0.04,0.75,0.0,0.0,0.0
1752780592389,99.0,-14.0,-19.0,-2.0,3.0,9.0,0.0,0.1,-0.0,-0.63,-0.2,0.04,0.75,0.0,0.0,0.0
1752780592423,99.0,-14.0,-19.0,-2.0,3.0,9.0,0.0,0.0,-0.0,-0.63,-0.2,0.04,0.75,0.0,0.0,0.0
1752780592470,99.0,-14.0,-19.0,-2.0,3.0,9.0,-0.0,0.1,-0.1,-0.63,-0.2,0.04,0.75,0.0,0.0,0.0
1752780592716,99.0,-14.0,-19.0,-2.0,3.0,9.0,0.0,0.0,0.0,-0.63,-0.2,0.04,0.75,0.0,0.0,0.0
1752780592753,99.0,-14.0,-19.0,-2.0,3.0,9.0,0.0,0.1,-0.1,-0.63,-0.2,0.04,0.75,0.0,0.0,0.0
1752780592805,99.0,-14.0,-19.0,-2.0,3.0,9.0,0.0,0.0,0.0,-0.63,-0.2,0.04,0.75,0.0,0.0,0.0
1752780592944,99.0,-15.0,-19.0,-2.0,3.0,9.0,0.0,0.1,-0.0,-0.63,-0.2,0.04,0.75,0.0,0.0,0.0
1752780592977,99.0,-15.0,-19.0,-2.0,3.0,9.0,0.0,0.0,0.0,-0.63,-0.2,0.04,0.75,0.0,0.0,0.0
1752780593016,99.0,-15.0,-19.0,-2.0,3.0,9.0,0.0,0.1,-0.1,-0.63,-0.2,0.04,0.75,0.0,0.0,0.0
1752780593063,99.0,-14.0,-19.0,-2.0,3.0,9.0,0.0,0.1,0.0,-0.63,-0.2,0.04,0.75,0.0,0.0,0.0
1752780593098,99.0,-15.0,-19.0,-2.0,3.0,9.0,0.0,0.0,-0.1,-0.63,-0.2,0.04,0.75,0.0,0.0,0.0
1752780593148,99.0,-15.0,-19.0,-2.0,3.0,9.0,0.0,0.0,0.0,-0.63,-0.2,0.04,0.75,0.0,0.0,0.0
1752780593186,99.0,-15.0,-19.0,-2.0,3.0,9.0,0.0,0.0,-0.1,-0.63,-0.2,0.04,0.75,0.0,0.0,0.0
1752780593220,99.0,-15.0,-19.0,-2.0,3.0,9.0,0.0,0.0,-0.0,-0.63,-0.2,0.04,0.75,0.0,0.0,0.0
1752780593271,99.0,-15.0,-19.0,-2.0,3.0,9.0,0.0,0.0,-0.0,-0.63,-0.2,0.04,0.75,0.0,0.0,0.0
1752780593508,99.0,-15.0,-19.0,-2.0,3.0,9.0,0.0,0.0,0.0,-0.63,-0.2,0.04,0.75,0.0,0.0,0.0
1752780593658,99.0,-15.0,-19.0,-2.0,3.0,9.0,0.0,0.1,-0.0,-0.63,-0.2,0.04,0.75,0.0,0.0,0.0
1752780593692,99.0,-15.0,-19.0,-2.0,3.0,9.0,0.0,0.1,-0.0,-0.63,-0.2,0.04,0.75,0.0,0.0,0.0
1752780593725,99.0,-15.0,-19.0,-2.0,3.0,9.0,0.0,0.1,-0.0,-0.63,-0.2,0.04,0.75,0.0,0.0,0.0
1752780593766,99.0,-15.0,-19.0,-2.0,3.0,9.0,0.0,0.0,0.0,-0.63,-0.2,0.04,0.75,0.0,0.0,0.0
1752780593826,100.0,-14.0,-19.0,-3.0,4.0,8.0,-2.2,-3.1,3.1,-0.63,-0.2,0.04,0.75,0.0,0.0,0.0
1752780593856,101.0,-12.0,-17.0,-1.0,4.0,9.0,0.2,0.6,0.2,-0.62,-0.17,0.04,0.76,0.0,0.0,0.0
1752780593900,101.0,-14.0,-20.0,-1.0,4.0,9.0,0.9,-0.0,0.1,-0.62,-0.19,0.05,0.76,0.0,0.0,0.0
1752780594041,97.0,-15.0,-20.0,-3.0,3.0,8.0,-0.8,0.2,-0.1,-0.64,-0.21,0.04,0.73,0.0,0.0,0.0
1752780594078,95.0,-15.0,-18.0,-3.0,3.0,10.0,-0.2,-0.2,0.7,-0.66,-0.2,0.03,0.72,0.0,0.0,0.0
1752780594119,94.0,-16.0,-15.0,-2.0,2.0,10.0,-0.3,-0.3,0.3,-0.67,-0.19,0.0,0.72,0.0,0.0,0.0
1752780594262,91.0,-22.0,-15.0,-4.0,3.0,8.0,0.2,0.2,-0.4,-0.69,-0.21,-0.05,0.69,0.0,0.0,0.0
1752780594304,92.0,-26.0,-19.0,-6.0,9.0,14.0,-0.8,5.6,5.9,-0.67,-0.27,-0.05,0.69,0.0,0.0,0.0
1752780594344,93.0,-29.0,-22.0,-4.0,3.0,7.0,0.8,-0.1,-0.5,-0.65,-0.3,-0.05,0.69,0.0,0.0,0.0
1752780594380,92.0,-25.0,-18.0,-3.0,3.0,10.0,0.6,0.3,1.4,-0.67,-0.26,-0.05,0.7,0.0,0.0,0.0
1752780594428,92.0,-24.0,-18.0,-5.0,3.0,8.0,-0.5,0.8,0.6,-0.67,-0.25,-0.04,0.69,0.0,0.0,0.0
1752780594568,84.0,-27.0,-9.0,-5.0,2.0,9.0,-0.5,1.4,0.1,-0.72,-0.21,-0.12,0.65,0.0,0.0,0.0
1752780594608,84.0,-28.0,-6.0,-6.0,1.0,8.0,-1.1,-0.1,-0.5,-0.72,-0.2,-0.14,0.65,0.0,0.0,0.0
1752780594766,88.0,-37.0,-8.0,-6.0,2.0,4.0,0.2,1.2,-3.5,-0.68,-0.26,-0.19,0.66,0.0,0.0,0.0
1752780594801,91.0,-37.0,-8.0,-5.0,1.0,6.0,0.7,-0.4,-2.0,-0.66,-0.28,-0.18,0.67,0.0,0.0,0.0
1752780594835,91.0,-34.0,-6.0,-4.0,1.0,7.0,1.1,-0.6,-1.2,-0.67,-0.24,-0.17,0.68,0.0,0.0,0.0
1752780594869,91.0,-28.0,-5.0,-4.0,1.0,7.0,0.2,0.8,-0.5,-0.68,-0.2,-0.14,0.69,0.0,0.0,0.0
1752780594920,91.0,-22.0,-4.0,-4.0,-1.0,11.0,0.9,-1.0,2.8,-0.69,-0.17,-0.11,0.7,0.0,0.0,0.0
1752780594962,89.0,-16.0,-3.0,-1.0,-0.0,10.0,1.3,-0.1,0.3,-0.7,-0.13,-0.09,0.69,0.0,0.0,0.0
1752780595005,88.0,-10.0,-2.0,-1.0,-0.0,11.0,0.0,-0.3,1.1,-0.72,-0.07,-0.05,0.69,0.0,0.0,0.0
1752780595046,87.0,-5.0,1.0,0.0,-0.0,11.0,1.4,0.4,0.8,-0.72,-0.02,-0.04,0.69,0.0,0.0,0.0
1752780595085,87.0,2.0,3.0,2.0,-0.0,10.0,1.1,0.6,-0.4,-0.72,0.03,-0.01,0.69,0.0,0.0,0.0
1752780595123,88.0,6.0,2.0,-1.0,1.0,10.0,-0.7,0.6,0.4,-0.72,0.05,0.02,0.7,0.0,0.0,0.0
1752780595163,89.0,7.0,0.0,2.0,0.0,10.0,0.9,0.3,-0.1,-0.71,0.05,0.04,0.7,0.0,0.0,0.0
1752780595204,88.0,9.0,-0.0,2.0,0.0,9.0,0.6,0.3,-0.5,-0.72,0.05,0.06,0.69,0.0,0.0,0.0
1752780595247,88.0,11.0,-1.0,1.0,1.0,12.0,-0.7,0.7,2.3,-0.72,0.06,0.07,0.69,0.0,0.0,0.0
1752780595282,88.0,9.0,-3.0,1.0,1.0,9.0,-0.3,0.3,-0.9,-0.72,0.04,0.07,0.69,0.0,0.0,0.0
1752780595420,88.0,5.0,-5.0,1.0,1.0,9.0,0.6,0.2,-1.3,-0.72,0.0,0.06,0.69,0.0,0.0,0.0
1752780595575,88.0,5.0,-6.0,1.0,1.0,10.0,-0.5,-0.3,1.0,-0.72,0.0,0.07,0.69,0.0,0.0,0.0
1752780595625,89.0,4.0,-6.0,0.0,1.0,9.0,-0.5,0.4,-0.6,-0.71,-0.01,0.06,0.7,0.0,0.0,0.0
1752780595658,89.0,4.0,-7.0,0.0,2.0,9.0,-0.2,0.4,-0.7,-0.71,-0.02,0.07,0.7,0.0,0.0,0.0
1752780595708,89.0,4.0,-7.0,-0.0,2.0,10.0,-0.8,0.3,0.0,-0.71,-0.02,0.07,0.7,0.0,0.0,0.0
1752780595734,90.0,4.0,-7.0,1.0,1.0,9.0,0.6,0.7,0.0,-0.71,-0.02,0.07,0.7,0.0,0.0,0.0
1752780595772,90.0,3.0,-8.0,0.0,2.0,10.0,-0.4,0.2,-0.3,-0.71,-0.03,0.07,0.7,0.0,0.0,0.0
1752780595825,92.0,0.0,-9.0,0.0,2.0,9.0,0.0,0.5,-1.0,-0.69,-0.05,0.06,0.71,0.0,0.0,0.0
1752780595959,93.0,0.0,-11.0,0.0,3.0,9.0,1.3,0.1,-0.1,-0.69,-0.07,0.07,0.72,0.0,0.0,0.0
1752780596009,94.0,-8.0,-18.0,-3.0,4.0,13.0,-1.7,0.3,2.8,-0.67,-0.15,0.07,0.72,0.0,0.0,0.0
1752780596042,93.0,-8.0,-17.0,-1.0,3.0,8.0,0.8,0.3,-2.8,-0.68,-0.16,0.06,0.71,0.0,0.0,0.0
1752780596075,93.0,-10.0,-17.0,-2.0,4.0,11.0,0.2,0.9,1.7,-0.68,-0.17,0.05,0.71,0.0,0.0,0.0
1752780596125,92.0,-14.0,-10.0,-3.0,0.0,11.0,-0.5,0.3,1.4,-0.68,-0.15,0.0,0.71,0.0,0.0,0.0
1752780596273,88.0,-16.0,-9.0,-7.0,2.0,13.0,-2.7,1.7,5.4,-0.7,-0.15,-0.05,0.69,0.0,0.0,0.0
1752780596309,87.0,-38.0,2.0,-6.0,-0.0,10.0,1.3,0.4,3.6,-0.69,-0.22,-0.25,0.65,0.0,0.0,0.0
1752780596359,88.0,-52.0,11.0,-7.0,0.0,8.0,1.0,1.4,2.9,-0.64,-0.26,-0.36,0.62,0.0,0.0,0.0
1752780596384,89.0,-65.0,24.0,-6.0,-2.0,4.0,3.8,0.5,1.2,-0.6,-0.3,-0.46,0.58,0.0,0.0,0.0
1752780596427,88.0,-73.0,44.0,-6.0,-3.0,2.0,3.9,-1.6,0.5,-0.56,-0.34,-0.53,0.54,0.0,0.0,0.0
1752780596472,82.0,-81.0,77.0,-5.0,-1.0,-1.0,4.3,0.8,-1.2,-0.55,-0.37,-0.57,0.49,0.0,0.0,0.0
1752780596520,80.0,-80.0,115.0,-6.0,2.0,-1.0,3.6,0.5,-0.3,-0.52,-0.38,-0.63,0.44,0.0,0.0,0.0
1752780596556,81.0,-72.0,149.0,-6.0,-2.0,-3.0,4.1,-0.2,-1.1,-0.47,-0.4,-0.67,0.4,0.0,0.0,0.0
1752780596598,84.0,-68.0,152.0,-6.0,-1.0,-5.0,2.4,1.5,-1.3,-0.43,-0.43,-0.7,0.39,0.0,0.0,0.0
1752780596639,86.0,-69.0,152.0,-8.0,-2.0,-4.0,1.3,-0.9,0.2,-0.43,-0.44,-0.68,0.4,0.0,0.0,0.0
1752780596678,90.0,-67.0,153.0,-8.0,-2.0,-4.0,1.4,-0.6,-1.1,-0.4,-0.46,-0.68,0.4,0.0,0.0,0.0
1752780596725,87.0,-63.0,158.0,-7.0,-1.0,-6.0,1.1,0.9,-0.6,-0.39,-0.46,-0.7,0.38,0.0,0.0,0.0
1752780596771,86.0,-63.0,160.0,-8.0,-2.0,-4.0,1.0,-0.2,-0.0,-0.4,-0.45,-0.71,0.36,0.0,0.0,0.0
1752780596809,85.0,-63.0,161.0,-9.0,1.0,-7.0,0.1,1.9,-2.7,-0.4,-0.46,-0.7,0.37,0.0,0.0,0.0
1752780596853,83.0,-64.0,164.0,-8.0,-0.0,-4.0,2.7,1.5,0.4,-0.4,-0.46,-0.7,0.36,0.0,0.0,0.0
1752780596885,84.0,-64.0,163.0,-8.0,-1.0,-3.0,0.9,0.7,1.8,-0.4,-0.47,-0.7,0.36,0.0,0.0,0.0
1752780596930,87.0,-64.0,159.0,-8.0,-2.0,-6.0,1.0,-0.5,-1.6,-0.39,-0.46,-0.7,0.37,0.0,0.0,0.0
1752780596975,86.0,-64.0,161.0,-9.0,-1.0,-3.0,0.2,0.2,0.6,-0.39,-0.47,-0.7,0.37,0.0,0.0,0.0
1752780597020,86.0,-64.0,162.0,-8.0,-1.0,-4.0,0.7,-0.1,-0.1,-0.4,-0.48,-0.69,0.37,0.0,0.0,0.0
1752780597153,81.0,-64.0,175.0,-8.0,0.0,-4.0,0.5,0.6,0.6,-0.4,-0.48,-0.69,0.36,0.0,0.0,0.0
1752780597298,83.0,-62.0,-169.0,-7.0,-4.0,-6.0,1.3,-5.3,-1.1,-0.39,-0.63,-0.58,0.34,0.0,0.0,0.0
1752780597340,82.0,-58.0,-155.0,-5.0,-3.0,-6.0,3.0,-5.8,-1.0,-0.39,-0.71,-0.48,0.34,0.0,0.0,0.0
1752780597383,72.0,-49.0,-138.0,-2.0,-1.0,-7.0,6.2,-5.6,-1.6,-0.41,-0.79,-0.34,0.3,0.0,0.0,0.0
1752780597419,51.0,-27.0,-130.0,3.0,10.0,-7.0,6.9,2.8,-0.8,-0.42,-0.87,-0.16,0.22,0.0,0.0,0.0
1752780597564,35.0,-15.0,-128.0,1.0,10.0,-7.0,1.8,3.4,0.6,-0.43,-0.89,-0.02,0.14,0.0,0.0,0.0
1752780597714,176.0,-12.0,-149.0,3.0,9.0,-8.0,5.3,4.8,0.1,-0.27,-0.96,-0.03,0.1,0.0,0.0,0.0
1752780597757,166.0,-20.0,-156.0,3.0,12.0,-5.0,8.9,6.6,3.4,-0.22,-0.96,-0.12,0.15,0.0,0.0,0.0
1752780597789,145.0,-31.0,-169.0,9.0,3.0,-3.0,14.4,2.5,5.5,-0.16,-0.92,-0.29,0.23,0.0,0.0,0.0
1752780597832,108.0,-30.0,162.0,14.0,-8.0,-1.0,18.8,-4.2,7.2,-0.07,-0.81,-0.5,0.29,0.0,0.0,0.0
1752780597876,75.0,-15.0,148.0,11.0,-19.0,-13.0,12.4,-12.2,-8.8,0.04,-0.63,-0.72,0.3,0.0,0.0,0.0
1752780597919,51.0,-4.0,145.0,8.0,-15.0,-16.0,6.7,-5.8,-3.4,0.09,-0.45,-0.84,0.28,0.0,0.0,0.0
1752780598064,41.0,-7.0,141.0,-1.0,-7.0,-5.0,2.2,0.2,0.5,0.05,-0.33,-0.88,0.33,0.0,0.0,0.0
1752780598100,141.0,-25.0,124.0,-1.0,-8.0,-6.0,3.6,-0.8,-1.3,-0.17,-0.14,-0.86,0.47,0.0,0.0,0.0
1752780598143,124.0,-34.0,112.0,-3.0,-6.0,-2.0,3.2,1.1,0.5,-0.25,-0.12,-0.81,0.51,0.0,0.0,0.0
1752780598179,113.0,-41.0,100.0,-3.0,-6.0,0.0,3.4,0.9,0.9,-0.34,-0.1,-0.76,0.54,0.0,0.0,0.0
1752780598222,104.0,-47.0,81.0,-4.0,-4.0,2.0,3.1,2.5,0.8,-0.43,-0.11,-0.68,0.58,0.0,0.0,0.0
1752780598265,99.0,-48.0,64.0,-5.0,-5.0,6.0,2.0,-0.0,1.6,-0.52,-0.11,-0.58,0.61,0.0,0.0,0.0
1752780598311,91.0,-47.0,41.0,-5.0,-4.0,6.0,2.4,0.2,0.6,-0.61,-0.12,-0.48,0.62,0.0,0.0,0.0
1752780598345,83.0,-42.0,29.0,-4.0,-2.0,6.0,1.8,1.6,-0.3,-0.68,-0.1,-0.41,0.6,0.0,0.0,0.0
1752780598378,76.0,-36.0,18.0,-5.0,0.0,11.0,0.8,2.6,2.5,-0.74,-0.09,-0.32,0.58,0.0,0.0,0.0
1752780598436,71.0,-28.0,11.0,-3.0,0.0,10.0,1.7,1.6,0.9,-0.78,-0.07,-0.27,0.56,0.0,0.0,0.0
1752780598468,67.0,-23.0,6.0,-3.0,0.0,12.0,0.7,0.9,2.7,-0.82,-0.07,-0.19,0.54,0.0,0.0,0.0
1752780598502,61.0,-18.0,3.0,-3.0,1.0,14.0,-1.6,1.6,5.9,-0.85,-0.06,-0.15,0.5,0.0,0.0,0.0
1752780598539,58.0,-16.0,3.0,-6.0,4.0,18.0,-3.3,4.3,8.8,-0.87,-0.05,-0.13,0.48,0.0,0.0,0.0
1752780598582,53.0,-22.0,-7.0,-6.0,7.0,16.0,-2.3,5.9,7.2,-0.88,-0.1,-0.14,0.45,0.0,0.0,0.0
1752780598628,53.0,-34.0,-17.0,-4.0,9.0,15.0,4.0,4.8,7.1,-0.86,-0.22,-0.18,0.43,0.0,0.0,0.0
1752780598782,89.0,-67.0,-150.0,-3.0,-7.0,-0.0,5.4,-7.9,4.1,-0.45,-0.65,-0.45,0.41,0.0,0.0,0.0
1752780598819,114.0,-56.0,-171.0,-7.0,-13.0,-9.0,0.7,-13.1,-2.9,-0.26,-0.78,-0.4,0.4,0.0,0.0,0.0
1752780598854,136.0,-45.0,-176.0,-6.0,-8.0,-9.0,0.3,-8.3,-1.7,-0.16,-0.86,-0.31,0.37,0.0,0.0,0.0
1752780598994,168.0,-23.0,-167.0,1.0,5.0,-11.0,4.9,3.0,-2.1,-0.13,-0.91,-0.23,0.33,0.0,0.0,0.0
1752780599036,163.0,-23.0,-169.0,2.0,5.0,-11.0,6.0,3.5,-2.5,-0.12,-0.97,-0.13,0.18,0.0,0.0,0.0
1752780599079,151.0,-27.0,-173.0,3.0,2.0,-11.0,8.2,1.4,-2.2,-0.11,-0.95,-0.21,0.2,0.0,0.0,0.0
1752780599127,133.0,-34.0,177.0,3.0,-2.0,-10.0,9.0,-3.0,-1.5,-0.1,-0.9,-0.34,0.26,0.0,0.0,0.0
1752780599164,109.0,-37.0,162.0,6.0,-10.0,-10.0,11.6,-6.8,-3.3,-0.08,-0.76,-0.55,0.34,0.0,0.0,0.0
1752780599204,159.0,-38.0,143.0,9.0,-15.0,-10.0,13.8,-11.1,-0.8,-0.08,-0.61,-0.67,0.42,0.0,0.0,0.0
1752780599244,147.0,-44.0,124.0,0.0,-17.0,4.0,6.7,-10.2,7.3,-0.15,-0.45,-0.71,0.52,0.0,0.0,0.0
1752780599288,128.0,-43.0,104.0,-2.0,-12.0,4.0,4.5,-5.5,5.2,-0.25,-0.27,-0.74,0.57,0.0,0.0,0.0
1752780599331,113.0,-47.0,88.0,-10.0,-6.0,9.0,-3.2,0.4,8.3,-0.37,-0.17,-0.7,0.59,0.0,0.0,0.0
1752780599366,105.0,-47.0,81.0,-9.0,-8.0,5.0,-1.6,-1.0,3.8,-0.45,-0.11,-0.66,0.59,0.0,0.0,0.0
1752780599413,99.0,-46.0,77.0,-7.0,-6.0,4.0,0.2,0.9,2.2,-0.5,-0.07,-0.64,0.58,0.0,0.0,0.0
1752780599445,92.0,-47.0,71.0,-6.0,-6.0,4.0,2.2,0.9,-0.1,-0.54,-0.06,-0.62,0.56,0.0,0.0,0.0
1752780599582,88.0,-47.0,67.0,-10.0,-3.0,9.0,-3.1,1.8,4.0,-0.58,-0.03,-0.6,0.55,0.0,0.0,0.0
1752780600040,109.0,-46.0,141.0,0.0,-8.0,-16.0,7.5,-3.7,-11.3,-0.27,-0.46,-0.72,0.43,0.0,0.0,0.0
1752780600079,90.0,-57.0,136.0,-2.0,-6.0,-5.0,6.9,-2.0,-1.9,-0.35,-0.31,-0.79,0.39,0.0,0.0,0.0
1752780600123,73.0,-66.0,122.0,-3.0,-1.0,-2.0,5.8,2.2,-0.6,-0.5,-0.22,-0.75,0.37,0.0,0.0,0.0
1752780600158,66.0,-67.0,94.0,0.0,-2.0,-4.0,9.0,2.4,-4.4,-0.59,-0.13,-0.71,0.38,0.0,0.0,0.0
1752780600199,67.0,-62.0,54.0,3.0,-1.0,-3.0,12.6,3.2,-4.0,-0.67,-0.11,-0.59,0.44,0.0,0.0,0.0
1752780600240,66.0,-33.0,24.0,-2.0,-4.0,19.0,2.8,-1.6,10.9,-0.77,-0.02,-0.4,0.5,0.0,0.0,0.0
1752780600282,61.0,-15.0,7.0,-7.0,3.0,30.0,-4.7,3.6,20.5,-0.84,-0.01,-0.19,0.51,0.0,0.0,0.0
1752780600323,58.0,-14.0,1.0,-2.0,3.0,14.0,0.2,2.9,4.4,-0.87,-0.05,-0.11,0.48,0.0,0.0,0.0
1752780600366,56.0,-16.0,-7.0,-3.0,5.0,14.0,-0.1,3.2,5.0,-0.87,-0.12,-0.1,0.46,0.0,0.0,0.0
1752780600404,54.0,-20.0,-18.0,-4.0,5.0,13.0,-0.5,2.9,4.2,-0.87,-0.21,-0.09,0.44,0.0,0.0,0.0
1752780600451,53.0,-28.0,-39.0,-3.0,9.0,6.0,2.4,2.8,-0.2,-0.83,-0.35,-0.09,0.41,0.0,0.0,0.0
1752780600477,54.0,-35.0,-55.0,-4.0,11.0,4.0,1.6,4.6,0.3,-0.78,-0.48,-0.12,0.39,0.0,0.0,0.0
1752780600544,57.0,-40.0,-65.0,-4.0,9.0,5.0,3.2,2.6,1.9,-0.72,-0.56,-0.14,0.39,0.0,0.0,0.0
1752780600592,64.0,-50.0,-66.0,-1.0,11.0,1.0,6.2,5.5,-0.7,-0.67,-0.57,-0.21,0.42,0.0,0.0,0.0
1752780600597,71.0,-64.0,-57.0,-3.0,8.0,2.0,5.4,6.4,0.4,-0.64,-0.52,-0.33,0.46,0.0,0.0,0.0
1752780600636,79.0,-81.0,4.0,1.0,4.0,5.0,10.8,5.6,4.3,-0.59,-0.41,-0.5,0.49,0.0,0.0,0.0
1752780600679,81.0,-70.0,102.0,4.0,0.0,-7.0,12.5,3.9,-5.4,-0.54,-0.28,-0.65,0.45,0.0,0.0,0.0
1752780600731,88.0,-53.0,130.0,3.0,-0.0,-16.0,9.6,4.3,-10.0,-0.4,-0.19,-0.81,0.38,0.0,0.0,0.0
1752780600765,89.0,-34.0,148.0,5.0,-9.0,-10.0,12.3,-11.0,-8.1,-0.28,-0.1,-0.92,0.27,0.0,0.0,0.0
1752780600799,11.0,-9.0,148.0,10.0,1.0,-26.0,6.5,1.3,-17.2,-0.05,-0.09,-0.96,0.28,0.0,0.0,0.0
1752780600839,13.0,-12.0,152.0,4.0,-14.0,-17.0,2.6,-6.6,-6.5,-0.08,-0.11,-0.96,0.25,0.0,0.0,0.0
1752780600879,22.0,-30.0,149.0,2.0,-11.0,-11.0,7.9,-6.9,-4.1,-0.19,-0.16,-0.93,0.28,0.0,0.0,0.0
1752780600925,81.0,-46.0,152.0,3.0,2.0,-6.0,11.0,3.5,-1.6,-0.33,-0.25,-0.86,0.29,0.0,0.0,0.0
1752780600957,58.0,-71.0,166.0,2.0,-3.0,-2.0,10.9,-1.4,-0.6,-0.51,-0.34,-0.74,0.29,0.0,0.0,0.0
1752780600996,48.0,-77.0,-99.0,2.0,10.0,4.0,9.0,8.3,3.5,-0.63,-0.43,-0.58,0.28,0.0,0.0,0.0
1752780601040,37.0,-61.0,-62.0,-0.0,11.0,7.0,4.8,7.5,9.1,-0.74,-0.44,-0.44,0.25,0.0,0.0,0.0
1752780601189,33.0,-47.0,-56.0,0.0,17.0,-4.0,10.4,12.8,-8.3,-0.79,-0.45,-0.33,0.24,0.0,0.0,0.0
1752780601532,66.0,-50.0,84.0,-0.0,-2.0,14.0,0.6,-1.9,4.7,-0.59,0.06,-0.71,0.38,0.0,0.0,0.0
1752780601581,56.0,-4.0,-2.0,1.0,1.0,16.0,1.5,0.3,6.4,-0.88,-0.03,-0.02,0.47,0.0,0.0,0.0
1752780601618,53.0,-7.0,-5.0,1.0,-1.0,18.0,3.3,-2.9,6.6,-0.89,-0.07,-0.04,0.44,0.0,0.0,0.0
1752780601652,48.0,-17.0,-4.0,2.0,3.0,10.0,4.3,4.8,-2.7,-0.9,-0.09,-0.13,0.4,0.0,0.0,0.0
1752780601702,37.0,-35.0,-4.0,-3.0,3.0,5.0,2.7,0.8,-2.3,-0.9,-0.13,-0.28,0.3,0.0,0.0,0.0
1752780601735,29.0,-52.0,-15.0,-3.0,6.0,8.0,5.4,4.8,3.1,-0.87,-0.18,-0.38,0.24,0.0,0.0,0.0
1752780601785,18.0,-62.0,-37.0,-3.0,10.0,3.0,7.7,4.8,-3.2,-0.83,-0.24,-0.47,0.16,0.0,0.0,0.0
1752780601933,38.0,-42.0,-166.0,-1.0,6.0,-13.0,4.8,4.7,-5.3,-0.37,-0.3,-0.88,0.02,0.0,0.0,0.0
1752780601969,28.0,-35.0,-171.0,0.0,7.0,-17.0,5.3,4.5,-8.4,-0.31,-0.23,-0.92,0.01,0.0,0.0,0.0
1752780602002,16.0,-32.0,-176.0,-0.0,0.0,-14.0,4.9,0.6,-4.9,-0.28,-0.14,-0.95,0.01,0.0,0.0,0.0
1752780602052,6.0,-33.0,175.0,-0.0,3.0,-13.0,5.0,3.9,-5.2,-0.28,-0.05,-0.96,0.05,0.0,0.0,0.0
1752780602086,353.0,-38.0,159.0,-1.0,-7.0,-6.0,4.9,-3.5,0.9,-0.32,0.03,-0.94,0.12,0.0,0.0,0.0
1752780602136,43.0,-43.0,149.0,-4.0,-3.0,-6.0,2.5,1.7,-0.7,-0.4,0.12,-0.89,0.16,0.0,0.0,0.0
1752780602169,52.0,-44.0,135.0,-3.0,-1.0,-9.0,1.9,1.2,-3.0,-0.45,0.15,-0.85,0.22,0.0,0.0,0.0
1752780602202,58.0,-46.0,112.0,-4.0,-7.0,0.0,3.3,-1.1,3.3,-0.53,0.17,-0.77,0.3,0.0,0.0,0.0
1752780602244,58.0,-44.0,86.0,-7.0,-8.0,6.0,0.2,-1.4,4.8,-0.62,0.2,-0.68,0.34,0.0,0.0,0.0
1752780602303,56.0,-43.0,74.0,-4.0,-4.0,2.0,1.7,2.5,0.8,-0.67,0.2,-0.62,0.36,0.0,0.0,0.0
1752780602333,56.0,-38.0,58.0,-5.0,-8.0,8.0,0.4,-2.0,3.2,-0.73,0.18,-0.53,0.39,0.0,0.0,0.0
1752780602573,54.0,-35.0,52.0,-4.0,-6.0,8.0,-0.4,0.1,1.6,-0.77,0.18,-0.47,0.39,0.0,0.0,0.0
1752780602611,49.0,-28.0,34.0,-4.0,-4.0,7.0,-0.1,1.2,-0.6,-0.85,0.14,-0.34,0.38,0.0,0.0,0.0
1752780602649,50.0,-28.0,36.0,-5.0,-4.0,7.0,-0.3,0.5,0.5,-0.84,0.15,-0.34,0.39,0.0,0.0,0.0
1752780602693,51.0,-28.0,39.0,-4.0,-6.0,7.0,0.4,-0.2,0.5,-0.83,0.16,-0.36,0.4,0.0,0.0,0.0
1752780602732,50.0,-33.0,40.0,-5.0,-3.0,8.0,0.5,2.1,1.5,-0.82,0.15,-0.39,0.39,0.0,0.0,0.0
1752780602774,49.0,-37.0,40.0,-4.0,-4.0,4.0,1.8,0.4,-1.3,-0.82,0.12,-0.42,0.37,0.0,0.0,0.0
1752780602812,51.0,-42.0,37.0,-4.0,-5.0,11.0,1.4,-0.5,6.2,-0.81,0.07,-0.45,0.38,0.0,0.0,0.0
1752780602849,57.0,-45.0,32.0,-3.0,-8.0,12.0,4.2,-5.6,4.8,-0.79,-0.0,-0.45,0.43,0.0,0.0,0.0
1752780602889,66.0,-51.0,38.0,-1.0,-10.0,8.0,11.1,-6.2,0.9,-0.73,-0.05,-0.5,0.47,0.0,0.0,0.0
1752780602941,70.0,-63.0,53.0,-4.0,-8.0,7.0,4.8,-4.4,5.0,-0.66,-0.11,-0.57,0.47,0.0,0.0,0.0
1752780602977,67.0,-71.0,70.0,-4.0,-3.0,6.0,5.8,-0.5,6.2,-0.62,-0.18,-0.64,0.41,0.0,0.0,0.0
1752780603012,69.0,-72.0,126.0,2.0,-9.0,3.0,12.9,-7.8,5.1,-0.53,-0.26,-0.72,0.36,0.0,0.0,0.0
1752780603064,66.0,-50.0,166.0,10.0,-6.0,-5.0,19.5,-3.1,1.4,-0.36,-0.33,-0.84,0.24,0.0,0.0,0.0
1752780603103,50.0,-21.0,-166.0,18.0,7.0,-13.0,15.2,6.1,-7.5,-0.22,-0.41,-0.89,-0.02,0.0,0.0,0.0
1752780603134,69.0,0.0,-146.0,19.0,15.0,-9.0,18.8,9.6,-1.3,-0.16,-0.51,-0.82,-0.21,0.0,0.0,0.0
1752780603282,270.0,4.0,-116.0,8.0,13.0,-2.0,7.5,3.3,2.7,-0.22,-0.64,-0.67,-0.31,0.0,0.0,0.0
1752780603325,268.0,4.0,-114.0,12.0,19.0,2.0,10.9,10.1,6.0,-0.38,-0.62,-0.56,-0.39,0.0,0.0,0.0
1752780603372,264.0,0.0,-115.0,15.0,21.0,8.0,17.0,13.6,12.4,-0.37,-0.58,-0.6,-0.41,0.0,0.0,0.0
1752780603506,321.0,1.0,153.0,28.0,-20.0,3.0,28.2,-14.5,11.0,-0.04,0.26,-0.95,0.15,0.0,0.0,0.0
1752780603544,110.0,-3.0,116.0,6.0,-15.0,11.0,7.1,-6.0,14.5,-0.24,0.43,-0.77,0.4,0.0,0.0,0.0
1752780603696,98.0,-8.0,96.0,1.0,-7.0,9.0,4.3,0.5,4.3,-0.42,0.42,-0.64,0.49,0.0,0.0,0.0
1752780603743,86.0,-15.0,75.0,2.0,-9.0,5.0,4.2,0.3,2.4,-0.58,0.32,-0.52,0.54,0.0,0.0,0.0
1752780603781,89.0,-15.0,75.0,1.0,-11.0,8.0,4.0,-1.6,6.2,-0.56,0.3,-0.53,0.55,0.0,0.0,0.0
1752780603815,89.0,-16.0,78.0,0.0,-9.0,9.0,3.0,2.0,7.2,-0.55,0.31,-0.55,0.54,0.0,0.0,0.0
1752780603862,90.0,-20.0,85.0,2.0,-10.0,8.0,6.3,-2.8,8.2,-0.52,0.28,-0.62,0.52,0.0,0.0,0.0
1752780603900,101.0,-22.0,94.0,8.0,-17.0,5.0,12.7,-8.9,6.4,-0.44,0.22,-0.69,0.53,0.0,0.0,0.0
1752780603935,112.0,-24.0,122.0,16.0,-4.0,-4.0,19.8,2.5,1.6,-0.31,0.13,-0.82,0.46,0.0,0.0,0.0
1752780603982,1.0,-25.0,150.0,18.0,8.0,-10.0,21.8,9.6,-1.3,-0.22,-0.01,-0.95,0.24,0.0,0.0,0.0
1752780604016,28.0,-14.0,-177.0,19.0,15.0,-16.0,20.1,12.4,-8.0,-0.13,-0.24,-0.96,0.0,0.0,0.0,0.0
1752780604055,52.0,-3.0,-159.0,15.0,16.0,-8.0,15.4,11.8,2.3,-0.1,-0.43,-0.88,-0.15,0.0,0.0,0.0
1752780604193,75.0,-3.0,-150.0,5.0,5.0,-8.0,4.8,-1.1,-0.0,-0.18,-0.59,-0.76,-0.19,0.0,0.0,0.0
1752780604349,62.0,-11.0,-143.0,17.0,13.0,-6.0,21.0,7.2,0.5,-0.26,-0.52,-0.78,-0.23,0.0,0.0,0.0
1752780604401,25.0,-12.0,-166.0,25.0,-3.0,-11.0,26.9,-4.5,-1.8,-0.16,-0.28,-0.94,-0.13,0.0,0.0,0.0
1752780604436,2.0,-11.0,172.0,18.0,-14.0,-7.0,19.4,-10.0,1.7,-0.09,-0.02,-0.99,0.07,0.0,0.0,0.0
1752780604480,338.0,-10.0,145.0,9.0,-15.0,-1.0,9.3,-9.0,7.1,-0.15,0.18,-0.93,0.27,0.0,0.0,0.0
1752780604503,114.0,-12.0,121.0,4.0,-19.0,6.0,4.0,-7.6,12.3,-0.27,0.28,-0.82,0.42,0.0,0.0,0.0
1752780604546,100.0,-15.0,104.0,-3.0,-10.0,11.0,-0.4,1.3,11.3,-0.4,0.32,-0.72,0.48,0.0,0.0,0.0
1752780604586,95.0,-18.0,95.0,-2.0,-9.0,4.0,1.5,-0.0,5.1,-0.46,0.3,-0.68,0.49,0.0,0.0,0.0
1752780604632,100.0,-17.0,92.0,-1.0,-11.0,3.0,1.7,-1.4,2.9,-0.45,0.28,-0.66,0.53,0.0,0.0,0.0
1752780604674,103.0,-16.0,90.0,-1.0,-11.0,4.0,0.8,-2.4,4.5,-0.44,0.27,-0.65,0.55,0.0,0.0,0.0
1752780604817,104.0,-23.0,110.0,5.0,-15.0,6.0,11.6,-6.8,10.0,-0.36,0.19,-0.79,0.46,0.0,0.0,0.0
1752780604861,95.0,-30.0,131.0,12.0,-5.0,3.0,18.8,2.7,9.6,-0.31,0.07,-0.88,0.35,0.0,0.0,0.0
1752780605096,13.0,-30.0,168.0,8.0,10.0,-5.0,5.2,7.0,2.3,-0.24,-0.11,-0.95,0.13,0.0,0.0,0.0
1752780605138,79.0,13.0,-148.0,9.0,14.0,-5.0,6.7,9.1,3.2,-0.07,-0.61,-0.73,-0.29,0.0,0.0,0.0
1752780605190,73.0,9.0,-150.0,11.0,13.0,-4.0,11.9,8.2,5.5,-0.09,-0.57,-0.77,-0.26,0.0,0.0,0.0
1752780605225,54.0,-2.0,-157.0,14.0,12.0,-5.0,16.8,8.1,3.0,-0.11,-0.48,-0.85,-0.19,0.0,0.0,0.0
1752780605272,32.0,-8.0,-170.0,20.0,3.0,-9.0,22.2,1.0,1.4,-0.09,-0.27,-0.96,-0.06,0.0,0.0,0.0
1752780605305,5.0,-12.0,164.0,18.0,-9.0,-5.0,19.2,-6.4,4.6,-0.1,-0.05,-0.98,0.14,0.0,0.0,0.0
1752780605350,119.0,-17.0,133.0,7.0,-10.0,5.0,8.5,-3.1,13.4,-0.21,0.12,-0.9,0.36,0.0,0.0,0.0
1752780605388,107.0,-14.0,94.0,-0.0,-22.0,24.0,1.8,-12.3,23.6,-0.37,0.24,-0.73,0.52,0.0,0.0,0.0
1752780605436,104.0,-9.0,82.0,-1.0,-10.0,8.0,1.3,-0.1,7.0,-0.46,0.32,-0.58,0.59,0.0,0.0,0.0
1752780605470,111.0,-13.0,84.0,2.0,-7.0,-5.0,4.2,1.3,-6.6,-0.42,0.24,-0.63,0.61,0.0,0.0,0.0
1752780605508,115.0,-14.0,82.0,-2.0,-9.0,3.0,-0.2,0.4,3.0,-0.4,0.2,-0.63,0.63,0.0,0.0,0.0
1752780605556,112.0,-16.0,78.0,-2.0,-7.0,3.0,1.3,1.3,-1.0,-0.43,0.2,-0.6,0.64,0.0,0.0,0.0
1752780605594,114.0,-17.0,74.0,-3.0,-9.0,4.0,-0.4,-0.0,2.2,-0.43,0.17,-0.59,0.66,0.0,0.0,0.0
1752780605636,113.0,-17.0,72.0,-3.0,-8.0,3.0,0.3,0.3,-0.7,-0.44,0.16,-0.57,0.67,0.0,0.0,0.0
1752780605680,114.0,-18.0,71.0,-3.0,-8.0,2.0,0.3,1.3,-0.8,-0.44,0.14,-0.57,0.67,0.0,0.0,0.0
1752780605721,113.0,-19.0,70.0,-4.0,-8.0,4.0,-0.7,1.2,0.4,-0.45,0.14,-0.57,0.67,0.0,0.0,0.0
1752780605761,113.0,-19.0,69.0,-3.0,-8.0,2.0,0.1,0.4,-1.4,-0.45,0.13,-0.56,0.68,0.0,0.0,0.0
1752780605797,113.0,-19.0,69.0,-4.0,-8.0,3.0,-0.4,0.5,-0.4,-0.45,0.13,-0.56,0.68,0.0,0.0,0.0
1752780605847,113.0,-19.0,66.0,-4.0,-8.0,3.0,-0.3,0.4,-0.6,-0.45,0.12,-0.55,0.69,0.0,0.0,0.0
1752780605980,114.0,-19.0,65.0,-3.0,-8.0,3.0,0.2,0.3,-1.6,-0.46,0.12,-0.53,0.7,0.0,0.0,0.0
1752780606021,114.0,-19.0,56.0,-3.0,-7.0,4.0,0.0,1.3,-1.7,-0.48,0.09,-0.48,0.73,0.0,0.0,0.0
1752780606061,112.0,-19.0,50.0,-3.0,-5.0,3.0,0.5,2.4,-3.9,-0.5,0.07,-0.44,0.75,0.0,0.0,0.0
1752780606097,112.0,-19.0,40.0,-2.0,-4.0,3.0,1.4,0.5,-4.2,-0.52,0.04,-0.37,0.77,0.0,0.0,0.0
1752780606147,111.0,-16.0,23.0,-1.0,-3.0,8.0,1.2,0.7,-0.9,-0.54,0.0,-0.27,0.8,0.0,0.0,0.0
1752780606181,108.0,-12.0,13.0,-1.0,-1.0,13.0,0.2,0.7,2.9,-0.58,-0.02,-0.15,0.8,0.0,0.0,0.0
1752780606227,105.0,-4.0,4.0,-1.0,-0.0,13.0,-0.2,2.8,1.5,-0.61,-0.01,-0.05,0.79,0.0,0.0,0.0
1752780606265,101.0,-1.0,-4.0,-1.0,4.0,9.0,1.7,1.2,-0.8,-0.64,-0.02,0.02,0.77,0.0,0.0,0.0
1752780606298,97.0,3.0,-17.0,1.0,3.0,11.0,-0.8,0.3,2.4,-0.66,-0.08,0.12,0.74,0.0,0.0,0.0
1752780606348,89.0,10.0,-25.0,-9.0,10.0,22.0,5.4,0.4,-2.2,-0.68,-0.09,0.2,0.69,0.0,0.0,0.0
1752780606389,83.0,7.0,-27.0,3.0,5.0,6.0,-1.0,0.6,0.6,-0.72,-0.13,0.21,0.65,0.0,0.0,0.0
1752780606431,79.0,6.0,-27.0,0.0,5.0,8.0,-0.7,0.5,-0.8,-0.75,-0.15,0.19,0.62,0.0,0.0,0.0
1752780606472,76.0,6.0,-28.0,1.0,5.0,8.0,-0.2,1.4,-0.8,-0.76,-0.16,0.19,0.6,0.0,0.0,0.0
1752780606518,75.0,5.0,-29.0,-0.0,6.0,9.0,-0.8,0.7,-0.1,-0.77,-0.17,0.19,0.59,0.0,0.0,0.0
1752780606551,74.0,5.0,-29.0,-0.0,5.0,6.0,-0.6,0.5,-2.6,-0.77,-0.17,0.19,0.58,0.0,0.0,0.0
1752780606792,72.0,5.0,-33.0,-2.0,10.0,-0.0,-0.5,-0.0,0.3,-0.77,-0.2,0.19,0.57,0.0,0.0,0.0
1752780606841,69.0,-8.0,-97.0,-2.0,10.0,-2.0,-0.3,0.2,0.0,-0.55,-0.66,0.34,0.38,0.0,0.0,0.0
1752780606888,73.0,-10.0,-106.0,-2.0,8.0,-3.0,-0.7,-0.5,-0.6,-0.5,-0.71,0.35,0.36,0.0,0.0,0.0
1752780607015,76.0,-9.0,-117.0,-1.0,9.0,-5.0,0.2,0.1,-0.5,-0.42,-0.75,0.39,0.33,0.0,0.0,0.0
1752780607058,76.0,-8.0,-120.0,-2.0,8.0,-5.0,-0.2,-0.2,-0.0,-0.4,-0.76,0.4,0.31,0.0,0.0,0.0
1752780607105,78.0,-9.0,-121.0,-2.0,8.0,-5.0,-0.8,-0.3,0.1,-0.39,-0.76,0.41,0.31,0.0,0.0,0.0
1752780607141,83.0,-11.0,-119.0,-2.0,8.0,-5.0,0.4,-0.2,-0.5,-0.38,-0.76,0.41,0.33,0.0,0.0,0.0
1752780607188,88.0,-15.0,-114.0,-4.0,8.0,-2.0,-1.1,-0.4,1.1,-0.4,-0.74,0.39,0.38,0.0,0.0,0.0
1752780607222,93.0,-19.0,-106.0,-3.0,12.0,-3.0,-0.7,-0.7,0.3,-0.42,-0.71,0.36,0.44,0.0,0.0,0.0
1752780607275,98.0,-22.0,-101.0,-4.0,9.0,-1.0,-0.5,-0.5,0.5,-0.42,-0.69,0.34,0.48,0.0,0.0,0.0
1752780607408,97.0,-23.0,-91.0,-4.0,9.0,5.0,-0.4,-0.8,1.7,-0.46,-0.64,0.31,0.53,0.0,0.0,0.0
1752780607455,97.0,-29.0,-52.0,-6.0,7.0,5.0,-1.4,-0.2,-0.6,-0.58,-0.47,0.13,0.65,0.0,0.0,0.0
1752780607498,94.0,-31.0,-44.0,-6.0,6.0,8.0,-0.9,0.2,1.9,-0.6,-0.44,0.07,0.67,0.0,0.0,0.0
1752780607539,92.0,-33.0,-42.0,-6.0,5.0,6.0,-0.5,-0.3,-0.3,-0.62,-0.43,0.02,0.65,0.0,0.0,0.0
1752780607574,92.0,-36.0,-38.0,-7.0,4.0,6.0,-1.1,-2.0,0.0,-0.63,-0.43,-0.03,0.65,0.0,0.0,0.0
1752780607624,92.0,-41.0,-38.0,-8.0,5.0,6.0,-0.9,2.2,-0.2,-0.62,-0.44,-0.07,0.64,0.0,0.0,0.0
1752780607656,90.0,-45.0,-38.0,-5.0,3.0,4.0,-1.1,0.7,-0.1,-0.63,-0.46,-0.11,0.62,0.0,0.0,0.0
1752780607709,91.0,-49.0,-34.0,-7.0,4.0,5.0,0.2,0.8,-0.5,-0.61,-0.46,-0.15,0.63,0.0,0.0,0.0
1752780607742,90.0,-52.0,-34.0,-8.0,6.0,5.0,-0.2,2.4,-0.1,-0.61,-0.46,-0.18,0.62,0.0,0.0,0.0
1752780607774,87.0,-53.0,-28.0,-8.0,2.0,4.0,0.1,-0.4,-0.5,-0.63,-0.43,-0.22,0.6,0.0,0.0,0.0
1752780607816,86.0,-53.0,-19.0,-8.0,1.0,5.0,0.2,0.0,-0.8,-0.65,-0.39,-0.26,0.6,0.0,0.0,0.0
1752780607857,84.0,-53.0,-12.0,-7.0,3.0,4.0,0.8,0.6,-1.2,-0.66,-0.35,-0.29,0.59,0.0,0.0,0.0
1752780608009,80.0,-55.0,-14.0,-9.0,1.0,5.0,0.4,1.0,-1.2,-0.67,-0.36,-0.3,0.57,0.0,0.0,0.0
1752780608042,65.0,-53.0,-10.0,-7.0,2.0,3.0,1.6,-0.1,-3.1,-0.75,-0.3,-0.35,0.48,0.0,0.0,0.0
1752780608083,61.0,-50.0,-24.0,-21.0,19.0,26.0,4.5,-8.6,-7.5,-0.77,-0.3,-0.33,0.46,0.0,0.0,0.0
1752780608126,61.0,-53.0,-37.0,-10.0,4.0,4.0,0.1,1.0,-1.1,-0.74,-0.42,-0.3,0.43,0.0,0.0,0.0
1752780608167,59.0,-54.0,-39.0,-8.0,5.0,3.0,0.4,0.4,-1.1,-0.74,-0.42,-0.3,0.42,0.0,0.0,0.0
1752780608206,59.0,-54.0,-40.0,-7.0,3.0,5.0,0.7,-0.5,0.1,-0.74,-0.43,-0.3,0.42,0.0,0.0,0.0
1752780608259,57.0,-52.0,-38.0,-7.0,4.0,4.0,0.5,0.7,-0.8,-0.75,-0.42,-0.29,0.42,0.0,0.0,0.0
1752780608293,59.0,-52.0,-35.0,-7.0,4.0,4.0,0.6,0.7,-1.5,-0.76,-0.41,-0.29,0.42,0.0,0.0,0.0
1752780608343,60.0,-51.0,-30.0,-7.0,3.0,4.0,0.5,0.4,-1.9,-0.76,-0.38,-0.29,0.44,0.0,0.0,0.0
1752780608376,58.0,-50.0,-28.0,-8.0,2.0,6.0,-0.9,-0.2,1.3,-0.78,-0.36,-0.3,0.43,0.0,0.0,0.0
1752780608417,54.0,-47.0,-29.0,-7.0,4.0,4.0,-0.0,0.1,-2.2,-0.8,-0.35,-0.28,0.4,0.0,0.0,0.0
1752780608477,51.0,-45.0,-33.0,-8.0,2.0,4.0,-1.0,-1.4,-1.7,-0.8,-0.36,-0.27,0.39,0.0,0.0,0.0
1752780608499,48.0,-43.0,-34.0,-6.0,4.0,8.0,0.6,0.2,2.0,-0.81,-0.37,-0.26,0.37,0.0,0.0,0.0
1752780608639,45.0,-42.0,-34.0,-6.0,2.0,8.0,0.2,-0.2,0.4,-0.83,-0.36,-0.26,0.35,0.0,0.0,0.0
1752780608683,42.0,-36.0,-17.0,-8.0,4.0,8.0,-2.1,1.1,0.3,-0.88,-0.23,-0.25,0.34,0.0,0.0,0.0
1752780608722,43.0,-35.0,-12.0,-7.0,0.0,11.0,-1.4,0.5,3.2,-0.88,-0.2,-0.25,0.35,0.0,0.0,0.0
1752780608757,45.0,-35.0,-8.0,-7.0,1.0,12.0,-0.8,0.2,1.1,-0.88,-0.17,-0.26,0.36,0.0,0.0,0.0
1752780608809,48.0,-44.0,-9.0,-8.0,3.0,8.0,-1.0,1.2,-0.1,-0.85,-0.2,-0.3,0.38,0.0,0.0,0.0
1752780608859,50.0,-50.0,-11.0,-8.0,1.0,6.0,-0.1,-0.2,0.0,-0.82,-0.24,-0.35,0.38,0.0,0.0,0.0
1752780608892,51.0,-53.0,-11.0,-7.0,3.0,6.0,0.9,2.0,0.7,-0.8,-0.25,-0.38,0.38,0.0,0.0,0.0
1752780608933,52.0,-57.0,-14.0,-9.0,3.0,5.0,-0.5,1.9,-0.6,-0.79,-0.28,-0.4,0.38,0.0,0.0,0.0
1752780608967,53.0,-59.0,-16.0,-9.0,3.0,4.0,-0.5,1.1,0.1,-0.77,-0.3,-0.41,0.39,0.0,0.0,0.0
1752780609107,54.0,-60.0,-16.0,-7.0,-1.0,5.0,4.0,-2.3,2.3,-0.76,-0.3,-0.41,0.39,0.0,0.0,0.0
1752780609258,69.0,-82.0,-84.0,-5.0,-3.0,-0.0,5.4,-5.3,-0.6,-0.61,-0.46,-0.5,0.41,0.0,0.0,0.0
1752780609296,75.0,-76.0,-154.0,-5.0,-2.0,-8.0,4.4,-0.0,-7.9,-0.52,-0.52,-0.56,0.39,0.0,0.0,0.0
1752780609443,77.0,-67.0,-168.0,-6.0,2.0,-12.0,3.4,4.2,-11.7,-0.44,-0.57,-0.6,0.35,0.0,0.0,0.0
1752780609480,93.0,-67.0,71.0,-1.0,-1.0,-6.0,8.8,3.7,-5.4,-0.52,-0.28,-0.6,0.54,0.0,0.0,0.0
1752780609527,106.0,-41.0,46.0,5.0,2.0,4.0,10.9,7.8,-0.4,-0.52,-0.11,-0.47,0.7,0.0,0.0,0.0
1752780609560,130.0,-6.0,27.0,11.0,1.0,16.0,11.5,4.9,7.1,-0.44,0.02,-0.29,0.85,0.0,0.0,0.0
1752780609611,140.0,6.0,19.0,7.0,-4.0,22.0,5.1,1.7,11.8,-0.35,0.1,-0.14,0.92,0.0,0.0,0.0
1752780609967,50.0,-38.0,177.0,-4.0,3.0,-12.0,1.9,3.8,-4.3,-0.29,-0.4,-0.86,0.15,0.0,0.0,0.0
1752780610001,84.0,-44.0,163.0,-5.0,2.0,-11.0,2.4,4.0,-4.3,-0.29,-0.4,-0.84,0.23,0.0,0.0,0.0
1752780610050,101.0,-50.0,147.0,-4.0,1.0,-6.0,4.3,4.9,-2.4,-0.31,-0.38,-0.79,0.37,0.0,0.0,0.0
1752780610084,119.0,-56.0,109.0,-5.0,-2.0,-2.0,4.3,3.9,-1.4,-0.32,-0.35,-0.68,0.55,0.0,0.0,0.0
1752780610125,132.0,-50.0,59.0,-5.0,-5.0,2.0,2.0,-0.1,-1.9,-0.33,-0.31,-0.53,0.72,0.0,0.0,0.0
1752780610164,135.0,-42.0,33.0,-4.0,-3.0,11.0,1.8,0.3,4.0,-0.34,-0.27,-0.39,0.81,0.0,0.0,0.0
1752780610201,136.0,-33.0,20.0,-5.0,-3.0,10.0,0.4,-0.4,2.0,-0.35,-0.22,-0.27,0.87,0.0,0.0,0.0
1752780610247,135.0,-30.0,14.0,-1.0,-4.0,10.0,3.4,-2.5,1.0,-0.37,-0.2,-0.2,0.89,0.0,0.0,0.0
1752780610298,132.0,-25.0,6.0,-2.0,-0.0,14.0,0.9,0.9,4.6,-0.39,-0.18,-0.14,0.89,0.0,0.0,0.0
1752780610334,129.0,-23.0,5.0,-4.0,-1.0,17.0,0.8,0.8,4.2,-0.42,-0.17,-0.12,0.88,0.0,0.0,0.0
1752780610368,127.0,-27.0,10.0,-5.0,-1.0,14.0,0.3,0.8,4.5,-0.43,-0.17,-0.17,0.87,0.0,0.0,0.0
1752780610414,124.0,-37.0,22.0,-5.0,-3.0,9.0,1.3,-0.3,2.7,-0.43,-0.2,-0.27,0.84,0.0,0.0,0.0
1752780610460,121.0,-50.0,34.0,-6.0,-2.0,10.0,2.0,1.3,5.5,-0.44,-0.26,-0.37,0.78,0.0,0.0,0.0
1752780610503,117.0,-61.0,51.0,-5.0,-2.0,3.0,4.1,2.1,2.0,-0.42,-0.34,-0.48,0.69,0.0,0.0,0.0
1752780610532,108.0,-67.0,102.0,-5.0,-3.0,-2.0,3.7,0.4,-0.3,-0.4,-0.38,-0.63,0.55,0.0,0.0,0.0
1752780610672,66.0,-27.0,-165.0,1.0,9.0,-14.0,5.7,6.6,-5.8,-0.38,-0.42,-0.73,0.39,0.0,0.0,0.0
1752780610711,68.0,-23.0,-163.0,1.0,6.0,-13.0,4.4,3.8,-4.2,-0.25,-0.54,-0.81,-0.0,0.0,0.0,0.0
1752780610763,70.0,-25.0,-167.0,-2.0,4.0,-10.0,1.8,2.1,-2.1,-0.24,-0.55,-0.8,0.03,0.0,0.0,0.0
1752780610801,70.0,-29.0,-171.0,-2.0,3.0,-13.0,3.1,2.0,-4.7,-0.25,-0.55,-0.79,0.07,0.0,0.0,0.0
1752780610951,72.0,-36.0,-179.0,-6.0,-3.0,-1.0,2.9,0.7,1.2,-0.25,-0.56,-0.77,0.18,0.0,0.0,0.0
1752780610991,124.0,-68.0,92.0,-7.0,-3.0,2.0,2.6,0.6,0.9,-0.32,-0.47,-0.56,0.6,0.0,0.0,0.0
1752780611033,129.0,-65.0,59.0,-6.0,-2.0,2.0,2.6,0.5,0.0,-0.34,-0.42,-0.46,0.71,0.0,0.0,0.0
1752780611075,132.0,-57.0,39.0,-6.0,-3.0,5.0,1.2,-0.2,0.8,-0.34,-0.37,-0.38,0.77,0.0,0.0,0.0
1752780611118,135.0,-46.0,24.0,-7.0,-2.0,10.0,-0.5,0.2,3.3,-0.34,-0.32,-0.32,0.83,0.0,0.0,0.0
1752780611159,136.0,-38.0,16.0,-6.0,-3.0,11.0,-0.1,-0.9,2.9,-0.35,-0.27,-0.25,0.86,0.0,0.0,0.0
1752780611197,137.0,-34.0,12.0,-5.0,-2.0,10.0,0.2,-0.2,1.6,-0.35,-0.24,-0.19,0.88,0.0,0.0,0.0
1752780611235,136.0,-31.0,9.0,-5.0,-1.0,10.0,-0.0,-0.1,2.1,-0.36,-0.22,-0.17,0.89,0.0,0.0,0.0
1752780611282,136.0,-29.0,7.0,-5.0,-1.0,9.0,0.2,0.5,0.4,-0.36,-0.21,-0.14,0.9,0.0,0.0,0.0
1752780611316,136.0,-27.0,4.0,-4.0,0.0,9.0,0.4,-0.0,0.1,-0.37,-0.21,-0.12,0.9,0.0,0.0,0.0
1752780611359,136.0,-26.0,1.0,-4.0,-1.0,9.0,-0.1,-0.5,0.4,-0.37,-0.21,-0.1,0.9,0.0,0.0,0.0
1752780611399,136.0,-26.0,0.0,-4.0,0.0,10.0,-0.0,0.3,1.6,-0.37,-0.21,-0.09,0.9,0.0,0.0,0.0
1752780611436,136.0,-27.0,0.0,-5.0,-1.0,12.0,-0.6,-0.6,3.5,-0.37,-0.22,-0.09,0.9,0.0,0.0,0.0
1752780611476,135.0,-33.0,6.0,-6.0,-2.0,9.0,0.1,-0.9,0.7,-0.37,-0.24,-0.15,0.89,0.0,0.0,0.0
1752780611615,133.0,-40.0,14.0,-7.0,-3.0,2.0,1.6,0.5,-0.9,-0.37,-0.28,-0.23,0.85,0.0,0.0,0.0
1752780611665,121.0,-68.0,76.0,-7.0,-3.0,-0.0,1.7,0.9,-0.5,-0.36,-0.42,-0.51,0.66,0.0,0.0,0.0
1752780611702,116.0,-70.0,98.0,-8.0,-2.0,-1.0,1.4,1.2,0.0,-0.37,-0.45,-0.57,0.59,0.0,0.0,0.0
1752780611735,109.0,-70.0,127.0,-7.0,-1.0,-3.0,1.6,0.7,-0.5,-0.36,-0.48,-0.61,0.51,0.0,0.0,0.0
1752780611776,102.0,-66.0,147.0,-7.0,-1.0,-5.0,1.7,1.0,-0.7,-0.36,-0.5,-0.65,0.45,0.0,0.0,0.0
1752780611816,90.0,-60.0,167.0,-7.0,1.0,-5.0,1.1,1.5,-0.0,-0.36,-0.52,-0.67,0.38,0.0,0.0,0.0
1752780611866,81.0,-55.0,178.0,-7.0,1.0,-6.0,1.0,0.6,-0.2,-0.35,-0.55,-0.69,0.31,0.0,0.0,0.0
1752780611900,74.0,-51.0,-177.0,-6.0,2.0,-7.0,1.5,0.9,-0.5,-0.35,-0.57,-0.69,0.26,0.0,0.0,0.0
1752780611943,64.0,-45.0,-171.0,-6.0,2.0,-8.0,1.2,0.5,-1.1,-0.33,-0.6,-0.7,0.22,0.0,0.0,0.0
1752780612180,101.0,-67.0,157.0,-8.0,-1.0,-3.0,1.3,0.9,-0.3,-0.35,-0.56,-0.63,0.41,0.0,0.0,0.0
1752780612326,121.0,-63.0,58.0,-8.0,-5.0,2.0,0.8,-1.0,-0.7,-0.37,-0.5,-0.6,0.5,0.0,0.0,0.0
1752780612364,123.0,-56.0,48.0,-8.0,-3.0,4.0,-0.4,0.7,-0.3,-0.39,-0.34,-0.46,0.72,0.0,0.0,0.0
1752780612398,126.0,-48.0,40.0,-5.0,-4.0,4.0,1.8,0.5,-1.6,-0.4,-0.26,-0.41,0.77,0.0,0.0,0.0
1752780612441,129.0,-34.0,33.0,-6.0,-4.0,10.0,0.7,-2.7,0.5,-0.4,-0.17,-0.35,0.83,0.0,0.0,0.0
1752780612481,131.0,-22.0,28.0,-2.0,-5.0,9.0,0.6,-0.1,0.7,-0.39,-0.08,-0.29,0.87,0.0,0.0,0.0
1752780612516,133.0,-11.0,24.0,-0.0,-4.0,9.0,0.4,0.1,0.2,-0.39,-0.0,-0.23,0.89,0.0,0.0,0.0
1752780612559,132.0,2.0,19.0,2.0,-4.0,9.0,1.0,-0.8,-0.4,-0.39,0.07,-0.16,0.9,0.0,0.0,0.0
1752780612598,130.0,8.0,16.0,2.0,-3.0,10.0,0.2,-0.6,0.6,-0.42,0.12,-0.1,0.89,0.0,0.0,0.0
1752780612637,124.0,15.0,15.0,3.0,-2.0,9.0,0.0,-0.7,0.5,-0.46,0.18,-0.05,0.87,0.0,0.0,0.0
1752780612674,120.0,21.0,15.0,4.0,-2.0,9.0,0.7,0.4,0.1,-0.49,0.22,-0.02,0.85,0.0,0.0,0.0
1752780612714,117.0,25.0,13.0,5.0,-3.0,9.0,0.5,-2.0,1.7,-0.5,0.24,0.02,0.83,0.0,0.0,0.0
1752780612763,115.0,29.0,14.0,4.0,-2.0,8.0,-0.7,-0.0,-0.4,-0.52,0.27,0.04,0.81,0.0,0.0,0.0
1752780612804,113.0,30.0,15.0,4.0,-2.0,8.0,-0.6,0.1,0.3,-0.53,0.28,0.05,0.8,0.0,0.0,0.0
1752780612950,110.0,31.0,16.0,5.0,-3.0,8.0,-0.8,-0.5,0.2,-0.54,0.29,0.05,0.78,0.0,0.0,0.0
1752780612990,105.0,34.0,19.0,6.0,-3.0,7.0,-0.1,0.6,0.3,-0.57,0.32,0.06,0.75,0.0,0.0,0.0
1752780613024,103.0,35.0,23.0,5.0,-2.0,7.0,-0.7,0.6,0.0,-0.58,0.35,0.05,0.73,0.0,0.0,0.0
1752780613065,101.0,35.0,25.0,5.0,-3.0,7.0,-0.5,-0.1,-0.0,-0.6,0.35,0.05,0.72,0.0,0.0,0.0
1752780613216,90.0,31.0,29.0,5.0,-5.0,8.0,-0.8,-0.6,0.3,-0.66,0.36,0.04,0.66,0.0,0.0,0.0
1752780613259,86.0,29.0,30.0,4.0,-3.0,7.0,-0.8,1.5,-0.2,-0.68,0.35,0.03,0.65,0.0,0.0,0.0
1752780613300,83.0,27.0,32.0,4.0,-5.0,8.0,-0.6,-0.2,0.4,-0.7,0.35,0.01,0.62,0.0,0.0,0.0
1752780613343,80.0,25.0,31.0,3.0,-4.0,8.0,-0.7,0.3,0.0,-0.72,0.34,0.01,0.6,0.0,0.0,0.0
1752780613580,77.0,23.0,31.0,1.0,-3.0,8.0,-0.3,0.9,-0.4,-0.74,0.33,0.01,0.59,0.0,0.0,0.0
1752780613733,52.0,-4.0,22.0,-1.0,-3.0,9.0,-0.6,0.8,-0.3,-0.85,0.21,-0.08,0.47,0.0,0.0,0.0
1752780613764,50.0,-5.0,21.0,-1.0,-3.0,9.0,-0.3,0.9,-0.4,-0.89,0.14,-0.12,0.42,0.0,0.0,0.0
1752780613801,49.0,-6.0,20.0,-1.0,-3.0,9.0,-0.3,0.7,-0.2,-0.89,0.13,-0.12,0.41,0.0,0.0,0.0
1752780613954,45.0,-12.0,14.0,-3.0,-2.0,9.0,-0.4,0.8,-0.2,-0.9,0.12,-0.13,0.4,0.0,0.0,0.0
1752780613985,44.0,-14.0,13.0,-3.0,-1.0,9.0,-0.1,0.8,-0.3,-0.91,0.06,-0.15,0.37,0.0,0.0,0.0
1752780614023,43.0,-15.0,12.0,-3.0,-1.0,9.0,-0.4,0.8,-0.1,-0.92,0.05,-0.16,0.37,0.0,0.0,0.0
1752780614073,43.0,-16.0,11.0,-3.0,-1.0,9.0,-0.3,0.9,-0.3,-0.92,0.03,-0.16,0.36,0.0,0.0,0.0
1752780614102,43.0,-17.0,10.0,-3.0,-1.0,9.0,-0.3,1.0,-0.5,-0.92,0.03,-0.17,0.36,0.0,0.0,0.0
1752780614153,43.0,-17.0,9.0,-3.0,-1.0,9.0,-0.5,0.9,-0.5,-0.92,0.02,-0.17,0.36,0.0,0.0,0.0
1752780614290,43.0,-18.0,9.0,-3.0,-1.0,9.0,-0.2,0.5,-0.2,-0.92,0.01,-0.17,0.36,0.0,0.0,0.0
1752780614323,42.0,-19.0,8.0,-3.0,-1.0,9.0,-0.2,0.3,-0.2,-0.92,0.0,-0.18,0.35,0.0,0.0,0.0
1752780614490,42.0,-19.0,8.0,-3.0,-1.0,9.0,-0.1,0.5,-0.4,-0.92,0.0,-0.18,0.35,0.0,0.0,0.0
1752780614528,43.0,-20.0,8.0,-4.0,-1.0,9.0,-0.4,0.3,-0.2,-0.91,0.0,-0.19,0.36,0.0,0.0,0.0
1752780614570,43.0,-20.0,9.0,-4.0,-1.0,9.0,-0.1,0.3,-0.2,-0.91,0.0,-0.19,0.36,0.0,0.0,0.0
1752780614722,44.0,-20.0,10.0,-3.0,-1.0,9.0,-0.0,0.2,-0.2,-0.91,0.01,-0.19,0.37,0.0,0.0,0.0
1752780614770,44.0,-20.0,10.0,-4.0,-1.0,9.0,-0.2,0.3,-0.2,-0.91,0.01,-0.19,0.37,0.0,0.0,0.0
1752780614834,46.0,-20.0,11.0,-4.0,-1.0,9.0,-0.2,0.2,-0.2,-0.9,0.02,-0.2,0.38,0.0,0.0,0.0
1752780615073,46.0,-20.0,11.0,-3.0,-2.0,9.0,0.0,0.2,-0.2,-0.9,0.01,-0.2,0.39,0.0,0.0,0.0
1752780615124,51.0,-21.0,12.0,-3.0,-2.0,9.0,-0.1,0.1,-0.2,-0.88,0.01,-0.21,0.42,0.0,0.0,0.0
1752780615179,51.0,-21.0,12.0,-4.0,-2.0,9.0,0.0,0.2,-0.3,-0.88,0.01,-0.21,0.42,0.0,0.0,0.0
1752780615220,52.0,-21.0,12.0,-3.0,-2.0,9.0,0.0,0.1,-0.1,-0.88,0.01,-0.21,0.43,0.0,0.0,0.0
1752780615263,52.0,-21.0,12.0,-4.0,-2.0,9.0,0.0,0.1,-0.2,-0.88,0.01,-0.21,0.43,0.0,0.0,0.0
1752780615606,51.0,-21.0,12.0,-4.0,-2.0,9.0,-0.0,0.1,-0.2,-0.88,0.01,-0.21,0.42,0.0,0.0,0.0
1752780615855,51.0,-21.0,12.0,-4.0,-2.0,9.0,-0.1,0.2,-0.1,-0.88,0.01,-0.21,0.42,0.0,0.0,0.0
1752780615902,53.0,-21.0,13.0,-4.0,-2.0,8.0,0.3,-0.4,-0.5,-0.87,0.02,-0.21,0.43,0.0,0.0,0.0
1752780615944,55.0,-22.0,14.0,-4.0,-2.0,9.0,0.0,-0.1,-0.2,-0.86,0.01,-0.22,0.45,0.0,0.0,0.0
1752780615978,57.0,-23.0,15.0,-4.0,-2.0,8.0,-0.0,0.2,-0.2,-0.86,0.01,-0.23,0.46,0.0,0.0,0.0
1752780616125,58.0,-24.0,15.0,-4.0,-2.0,8.0,0.1,-0.0,-0.1,-0.85,0.01,-0.24,0.47,0.0,0.0,0.0
1752780616181,60.0,-25.0,16.0,-4.0,-3.0,8.0,0.1,-0.1,-0.2,-0.84,0.0,-0.26,0.49,0.0,0.0,0.0
1752780616226,61.0,-26.0,17.0,-4.0,-2.0,8.0,0.1,0.0,-0.3,-0.83,-0.0,-0.26,0.49,0.0,0.0,0.0
1752780616276,62.0,-26.0,17.0,-4.0,-2.0,8.0,0.1,0.1,-0.3,-0.83,-0.0,-0.27,0.49,0.0,0.0,0.0
1752780616326,62.0,-26.0,17.0,-4.0,-3.0,8.0,-0.2,0.2,-0.0,-0.83,0.0,-0.27,0.5,0.0,0.0,0.0
1752780616376,62.0,-27.0,17.0,-4.0,-3.0,8.0,-0.0,0.0,-0.1,-0.82,-0.0,-0.27,0.5,0.0,0.0,0.0
1752780616426,63.0,-27.0,18.0,-5.0,-3.0,8.0,-0.2,0.1,-0.1,-0.82,-0.0,-0.28,0.5,0.0,0.0,0.0
1752780616568,66.0,-33.0,21.0,-5.0,-3.0,7.0,0.0,0.2,-0.3,-0.8,-0.02,-0.32,0.51,0.0,0.0,0.0
1752780616619,66.0,-34.0,21.0,-5.0,-3.0,7.0,0.3,-0.4,-0.2,-0.79,-0.03,-0.34,0.51,0.0,0.0,0.0
1752780616657,67.0,-36.0,22.0,-5.0,-3.0,7.0,0.4,-0.7,0.3,-0.78,-0.04,-0.35,0.52,0.0,0.0,0.0
1752780616691,68.0,-37.0,23.0,-6.0,-3.0,7.0,-0.1,0.2,0.0,-0.77,-0.04,-0.36,0.52,0.0,0.0,0.0
1752780616740,69.0,-39.0,24.0,-5.0,-3.0,7.0,0.2,0.0,-0.1,-0.76,-0.05,-0.38,0.52,0.0,0.0,0.0
1752780616777,69.0,-41.0,25.0,-6.0,-3.0,6.0,0.1,0.3,-0.4,-0.76,-0.05,-0.39,0.52,0.0,0.0,0.0
1752780616812,70.0,-42.0,27.0,-6.0,-3.0,6.0,0.3,-0.1,-0.2,-0.75,-0.06,-0.41,0.52,0.0,0.0,0.0
1752780616860,71.0,-45.0,28.0,-7.0,-3.0,6.0,0.2,-0.1,-0.1,-0.74,-0.07,-0.42,0.52,0.0,0.0,0.0
1752780617107,75.0,-52.0,36.0,-8.0,-4.0,5.0,0.3,0.0,-0.1,-0.69,-0.11,-0.49,0.52,0.0,0.0,0.0
1752780617150,75.0,-53.0,37.0,-8.0,-3.0,5.0,0.4,0.1,-0.2,-0.68,-0.12,-0.5,0.52,0.0,0.0,0.0
1752780617302,76.0,-54.0,37.0,-8.0,-4.0,4.0,0.6,0.4,0.2,-0.68,-0.13,-0.5,0.52,0.0,0.0,0.0
1752780617335,75.0,-59.0,38.0,-7.0,-3.0,5.0,1.4,0.5,2.3,-0.66,-0.16,-0.52,0.51,0.0,0.0,0.0
1752780617385,75.0,-62.0,38.0,-7.0,-2.0,6.0,1.7,0.5,2.0,-0.66,-0.19,-0.53,0.51,0.0,0.0,0.0
1752780617519,77.0,-64.0,144.0,-4.0,-2.0,-4.0,4.9,0.6,0.6,-0.47,-0.31,-0.74,0.38,0.0,0.0,0.0
1752780617569,74.0,-53.0,160.0,-3.0,-2.0,-6.0,4.2,-0.5,0.7,-0.37,-0.34,-0.81,0.28,0.0,0.0,0.0
1752780617619,47.0,-36.0,170.0,-0.0,0.0,-8.0,4.6,0.3,-0.0,-0.28,-0.37,-0.86,0.21,0.0,0.0,0.0
1752780617652,48.0,-23.0,173.0,-1.0,-1.0,-10.0,3.3,2.0,-1.7,-0.16,-0.39,-0.89,0.14,0.0,0.0,0.0
1752780617686,47.0,-11.0,173.0,4.0,-3.0,-11.0,3.7,-0.3,-1.2,-0.06,-0.39,-0.91,0.1,0.0,0.0,0.0
1752780617727,45.0,-3.0,174.0,2.0,0.0,-14.0,0.7,2.0,-5.1,-0.0,-0.38,-0.92,0.06,0.0,0.0,0.0
1752780617893,45.0,15.0,-179.0,4.0,-2.0,-7.0,1.8,-2.0,2.0,0.14,-0.37,-0.92,-0.04,0.0,0.0,0.0
1752780617921,46.0,17.0,-177.0,3.0,-2.0,-8.0,-0.3,-2.4,0.9,0.12,-0.39,-0.91,-0.08,0.0,0.0,0.0
1752780618057,50.0,17.0,-177.0,4.0,0.0,-11.0,7.6,5.2,-5.3,0.13,-0.42,-0.9,-0.09,0.0,0.0,0.0
1752780618091,68.0,-3.0,-137.0,1.0,11.0,-7.0,1.9,3.8,0.1,-0.23,-0.5,-0.78,-0.29,0.0,0.0,0.0
1752780618137,260.0,-3.0,-135.0,-1.0,8.0,-7.0,-0.3,0.8,0.0,-0.25,-0.53,-0.75,-0.29,0.0,0.0,0.0
1752780618173,71.0,-3.0,-135.0,0.0,7.0,-7.0,0.7,0.4,-0.3,-0.24,-0.54,-0.75,-0.29,0.0,0.0,0.0
1752780618215,71.0,-3.0,-135.0,-0.0,6.0,-7.0,0.4,-0.4,-0.2,-0.25,-0.54,-0.75,-0.29,0.0,0.0,0.0
1752780618366,71.0,-3.0,-135.0,-0.0,7.0,-7.0,0.3,0.0,-0.0,-0.24,-0.54,-0.75,-0.29,0.0,0.0,0.0
1752780618413,71.0,-3.0,-135.0,-0.0,7.0,-7.0,0.2,0.0,-0.0,-0.24,-0.54,-0.75,-0.29,0.0,0.0,0.0
1752780618457,71.0,-3.0,-135.0,-0.0,7.0,-7.0,0.2,0.0,-0.0,-0.24,-0.54,-0.75,-0.29,0.0,0.0,0.0
1752780618489,71.0,-3.0,-135.0,-0.0,7.0,-7.0,0.2,0.0,-0.0,-0.24,-0.54,-0.75,-0.29,0.0,0.0,0.0
