timestamp,heading,roll,pitch,acc_x,acc_y,acc_z,quat_w,quat_x,quat_y,quat_z,mag_x,mag_y,mag_z
1752616269446,0.0,0.0,0.0,0.0,0.0,9.81,1.0,0.0,0.0,0.0,0.0,0.0,0.0
1752616269564,359.94,-1.94,-105.5,0.0,0.0,9.81,1.0,0.0,0.0,0.0,0.0,0.0,0.0
1752616269685,0.0,-1.94,-105.56,0.0,0.0,9.81,1.0,0.0,0.0,0.0,0.0,0.0,0.0
1752616269809,0.0,-1.94,-105.56,0.0,0.0,9.81,1.0,0.0,0.0,0.0,0.0,0.0,0.0
1752616269932,0.0,-1.94,-105.56,0.0,0.0,9.81,1.0,0.0,0.0,0.0,0.0,0.0,0.0
1752616270052,0.0,-1.94,-105.56,0.0,0.0,9.81,1.0,0.0,0.0,0.0,0.0,0.0,0.0
1752616270169,0.0,-1.94,-105.56,0.0,0.0,9.81,1.0,0.0,0.0,0.0,0.0,0.0,0.0
1752616270399,0.0,-1.94,-105.63,0.0,0.0,9.81,1.0,0.0,0.0,0.0,0.0,0.0,0.0
1752616270520,0.0,-1.94,-105.63,0.0,0.0,9.81,1.0,0.0,0.0,0.0,0.0,0.0,0.0
1752616270670,359.94,-1.88,-105.38,0.0,0.0,9.81,1.0,0.0,0.0,0.0,0.0,0.0,0.0
1752616270768,359.38,-1.63,-104.19,0.0,0.0,9.81,1.0,0.0,0.0,0.0,0.0,0.0,0.0
1752616270906,354.44,0.56,-95.19,0.0,0.0,9.81,1.0,0.0,0.0,0.0,0.0,0.0,0.0
1752616271121,312.19,-7.63,-72.06,0.0,0.0,9.81,1.0,0.0,0.0,0.0,0.0,0.0,0.0
1752616271342,290.31,-16.63,-49.38,0.0,0.0,9.81,1.0,0.0,0.0,0.0,0.0,0.0,0.0
1752616271467,287.38,-15.19,-52.0,0.0,0.0,9.81,1.0,0.0,0.0,0.0,0.0,0.0,0.0
1752616271589,302.31,-12.06,-50.63,0.0,0.0,9.81,1.0,0.0,0.0,0.0,0.0,0.0,0.0
1752616271722,320.25,-6.94,-55.69,0.0,0.0,9.81,1.0,0.0,0.0,0.0,0.0,0.0,0.0
1752616271930,333.75,5.13,-81.69,0.0,0.0,9.81,1.0,0.0,0.0,0.0,0.0,0.0,0.0
1752616272057,348.0,10.75,-78.0,0.0,0.0,9.81,1.0,0.0,0.0,0.0,0.0,0.0,0.0
1752616272174,347.38,12.63,-77.88,0.0,0.0,9.81,1.0,0.0,0.0,0.0,0.0,0.0,0.0
1752616272305,337.88,4.13,-58.19,0.0,0.0,9.81,1.0,0.0,0.0,0.0,0.0,0.0,0.0
1752616272422,302.81,-30.31,-53.88,0.0,0.0,9.81,1.0,0.0,0.0,0.0,0.0,0.0,0.0
1752616272555,265.0,-50.63,-125.38,0.0,0.0,9.81,1.0,0.0,0.0,0.0,0.0,0.0,0.0
1752616272672,338.0,-54.56,140.25,0.0,0.0,9.81,1.0,0.0,0.0,0.0,0.0,0.0,0.0
1752616272794,23.81,-22.56,83.44,0.0,0.0,9.81,1.0,0.0,0.0,0.0,0.0,0.0,0.0
1752616272919,50.63,11.56,47.94,0.0,0.0,9.81,1.0,0.0,0.0,0.0,0.0,0.0,0.0
1752616273036,78.5,23.56,8.81,0.0,0.0,9.81,1.0,0.0,0.0,0.0,0.0,0.0,0.0
1752616273160,94.94,-31.38,-11.31,0.0,0.0,9.81,1.0,0.0,0.0,0.0,0.0,0.0,0.0
1752616273281,114.5,-67.31,123.56,0.0,0.0,9.81,1.0,0.0,0.0,0.0,0.0,0.0,0.0
1752616273399,39.31,-2.06,151.06,0.0,0.0,9.81,1.0,0.0,0.0,0.0,0.0,0.0,0.0
1752616273530,5.38,8.56,-175.25,0.0,0.0,9.81,1.0,0.0,0.0,0.0,0.0,0.0,0.0
1752616273642,327.94,-29.75,-148.75,0.0,0.0,9.81,1.0,0.0,0.0,0.0,0.0,0.0,0.0
1752616273769,305.06,-77.25,54.31,0.0,0.0,9.81,1.0,0.0,0.0,0.0,0.0,0.0,0.0
1752616273987,355.63,-5.5,27.25,0.0,0.0,9.81,1.0,0.0,0.0,0.0,0.0,0.0,0.0
1752616274116,30.38,7.75,17.0,0.0,0.0,9.81,1.0,0.0,0.0,0.0,0.0,0.0,0.0
1752616274336,101.88,-52.69,52.69,0.0,0.0,9.81,1.0,0.0,0.0,0.0,0.0,0.0,0.0
1752616274560,182.56,-16.44,110.25,0.0,0.0,9.81,1.0,0.0,0.0,0.0,0.0,0.0,0.0
1752616274679,209.0,3.0,125.5,0.0,0.0,9.81,1.0,0.0,0.0,0.0,0.0,0.0,0.0
1752616274804,2.5,4.69,156.88,0.0,0.0,9.81,1.0,0.0,0.0,0.0,0.0,0.0,0.0
1752616275038,249.38,-29.19,-121.5,0.0,0.0,9.81,1.0,0.0,0.0,0.0,0.0,0.0,0.0
1752616275155,271.88,-32.56,-78.63,0.0,0.0,9.81,1.0,0.0,0.0,0.0,0.0,0.0,0.0
1752616275272,290.63,-26.25,-35.5,0.0,0.0,9.81,1.0,0.0,0.0,0.0,0.0,0.0,0.0
1752616275389,312.56,-31.13,-28.31,0.0,0.0,9.81,1.0,0.0,0.0,0.0,0.0,0.0,0.0
1752616275615,5.94,-42.5,-56.69,0.0,0.0,9.81,1.0,0.0,0.0,0.0,0.0,0.0,0.0
1752616275741,14.31,-45.38,-71.19,0.0,0.0,9.81,1.0,0.0,0.0,0.0,0.0,0.0,0.0
1752616275957,333.0,-19.13,-92.31,0.0,0.0,9.81,1.0,0.0,0.0,0.0,0.0,0.0,0.0
1752616276081,309.13,0.13,-110.81,0.0,0.0,9.81,1.0,0.0,0.0,0.0,0.0,0.0,0.0
1752616276196,131.0,13.63,-138.5,0.0,0.0,9.81,1.0,0.0,0.0,0.0,0.0,0.0,0.0
1752616276319,122.25,25.44,-150.69,0.0,0.0,9.81,1.0,0.0,0.0,0.0,0.0,0.0,0.0
1752616276438,104.63,42.19,-166.06,0.0,0.0,9.81,1.0,0.0,0.0,0.0,0.0,0.0,0.0
1752616276562,89.13,48.25,-176.13,0.0,0.0,9.81,1.0,0.0,0.0,0.0,0.0,0.0,0.0
1752616276790,20.88,-15.38,157.06,0.0,0.0,9.81,1.0,0.0,0.0,0.0,0.0,0.0,0.0
1752616277016,354.56,-18.63,-97.88,0.0,0.0,9.81,1.0,0.0,0.0,0.0,0.0,0.0,0.0
1752616277243,37.56,24.38,-68.31,0.0,0.0,9.81,1.0,0.0,0.0,0.0,0.0,0.0,0.0
1752616277357,68.0,1.0,-73.19,0.0,0.0,9.81,1.0,0.0,0.0,0.0,0.0,0.0,0.0
1752616277580,27.5,3.13,-87.88,0.0,0.0,9.81,1.0,0.0,0.0,0.0,0.0,0.0,0.0
1752616277713,285.19,8.88,-120.06,0.0,0.0,9.81,1.0,0.0,0.0,0.0,0.0,0.0,0.0
1752616277827,85.13,18.88,-144.81,0.0,0.0,9.81,1.0,0.0,0.0,0.0,0.0,0.0,0.0
1752616277947,209.44,6.69,-129.31,0.0,0.0,9.81,1.0,0.0,0.0,0.0,0.0,0.0,0.0
1752616278081,6.63,5.75,-135.44,0.0,0.0,9.81,1.0,0.0,0.0,0.0,0.0,0.0,0.0
1752616278198,179.75,11.81,-131.56,0.0,0.0,9.81,1.0,0.0,0.0,0.0,0.0,0.0,0.0
1752616278329,226.31,15.94,-124.25,0.0,0.0,9.81,1.0,0.0,0.0,0.0,0.0,0.0,0.0
1752616278448,314.31,4.75,-114.81,0.0,0.0,9.81,1.0,0.0,0.0,0.0,0.0,0.0,0.0
1752616278573,41.5,-10.13,-98.81,0.0,0.0,9.81,1.0,0.0,0.0,0.0,0.0,0.0,0.0
1752616278697,67.69,-8.69,-77.38,0.0,0.0,9.81,1.0,0.0,0.0,0.0,0.0,0.0,0.0
1752616278815,56.5,-10.06,-83.88,0.0,0.0,9.81,1.0,0.0,0.0,0.0,0.0,0.0,0.0
1752616278935,2.44,-6.88,-103.5,0.0,0.0,9.81,1.0,0.0,0.0,0.0,0.0,0.0,0.0
1752616279059,293.06,-4.88,-128.63,0.0,0.0,9.81,1.0,0.0,0.0,0.0,0.0,0.0,0.0
1752616279183,44.44,-2.56,-140.13,0.0,0.0,9.81,1.0,0.0,0.0,0.0,0.0,0.0,0.0
1752616279303,19.81,-13.69,-144.13,0.0,0.0,9.81,1.0,0.0,0.0,0.0,0.0,0.0,0.0
1752616279427,16.56,-17.38,-138.38,0.0,0.0,9.81,1.0,0.0,0.0,0.0,0.0,0.0,0.0
1752616279550,36.31,-14.0,-137.56,0.0,0.0,9.81,1.0,0.0,0.0,0.0,0.0,0.0,0.0
1752616279672,263.44,-3.25,-132.81,0.0,0.0,9.81,1.0,0.0,0.0,0.0,0.0,0.0,0.0
1752616280006,51.56,-29.75,-106.75,0.0,0.0,9.81,1.0,0.0,0.0,0.0,0.0,0.0,0.0
1752616280113,32.25,-26.31,-117.06,0.0,0.0,9.81,1.0,0.0,0.0,0.0,0.0,0.0,0.0
1752616280239,352.0,-18.25,-137.75,0.0,0.0,9.81,1.0,0.0,0.0,0.0,0.0,0.0,0.0
1752616280361,80.56,-16.31,-138.56,0.0,0.0,9.81,1.0,0.0,0.0,0.0,0.0,0.0,0.0
1752616280486,296.31,-20.31,-138.25,0.0,0.0,9.81,1.0,0.0,0.0,0.0,0.0,0.0,0.0
1752616280602,293.44,-20.38,-138.94,0.0,0.0,9.81,1.0,0.0,0.0,0.0,0.0,0.0,0.0
1752616280736,288.31,-13.5,-129.19,0.0,0.0,9.81,1.0,0.0,0.0,0.0,0.0,0.0,0.0
1752616280854,284.75,1.5,-131.94,0.0,0.0,9.81,1.0,0.0,0.0,0.0,0.0,0.0,0.0
1752616280971,13.69,-11.5,-127.56,0.0,0.0,9.81,1.0,0.0,0.0,0.0,0.0,0.0,0.0
1752616281205,120.06,-58.13,-23.88,0.0,0.0,9.81,1.0,0.0,0.0,0.0,0.0,0.0,0.0
1752616281415,64.94,-34.0,-67.56,0.0,0.0,9.81,1.0,0.0,0.0,0.0,0.0,0.0,0.0
1752616281538,309.94,5.63,-110.63,0.0,0.0,9.81,1.0,0.0,0.0,0.0,0.0,0.0,0.0
1752616281758,244.38,-10.5,-125.75,0.0,0.0,9.81,1.0,0.0,0.0,0.0,0.0,0.0,0.0
1752616281890,224.13,-20.44,-135.5,0.0,0.0,9.81,1.0,0.0,0.0,0.0,0.0,0.0,0.0
1752616282012,193.94,-17.0,-133.06,0.0,0.0,9.81,1.0,0.0,0.0,0.0,0.0,0.0,0.0
1752616282135,321.5,-16.25,-130.75,0.0,0.0,9.81,1.0,0.0,0.0,0.0,0.0,0.0,0.0
1752616282250,85.44,-35.19,-85.88,0.0,0.0,9.81,1.0,0.0,0.0,0.0,0.0,0.0,0.0
1752616282381,112.69,-22.31,-27.63,0.0,0.0,9.81,1.0,0.0,0.0,0.0,0.0,0.0,0.0
1752616282497,102.63,-44.75,-48.75,0.0,0.0,9.81,1.0,0.0,0.0,0.0,0.0,0.0,0.0
1752616282616,30.38,-21.19,-76.75,0.0,0.0,9.81,1.0,0.0,0.0,0.0,0.0,0.0,0.0
1752616282760,279.69,4.63,-102.0,0.0,0.0,9.81,1.0,0.0,0.0,0.0,0.0,0.0,0.0
1752616282870,226.69,-4.31,-117.31,0.0,0.0,9.81,1.0,0.0,0.0,0.0,0.0,0.0,0.0
1752616283007,345.38,-17.0,-142.31,0.0,0.0,9.81,1.0,0.0,0.0,0.0,0.0,0.0,0.0
1752616283316,245.06,-7.63,-122.44,0.0,0.0,9.81,1.0,0.0,0.0,0.0,0.0,0.0,0.0
1752616283438,333.25,-11.81,-98.44,0.0,0.0,9.81,1.0,0.0,0.0,0.0,0.0,0.0,0.0
1752616283568,23.75,-3.81,-73.69,0.0,0.0,9.81,1.0,0.0,0.0,0.0,0.0,0.0,0.0
1752616283684,57.44,-6.69,-56.63,0.0,0.0,9.81,1.0,0.0,0.0,0.0,0.0,0.0,0.0
1752616283812,85.81,-50.63,-33.0,0.0,0.0,9.81,1.0,0.0,0.0,0.0,0.0,0.0,0.0
1752616283936,94.81,-59.88,86.69,0.0,0.0,9.81,1.0,0.0,0.0,0.0,0.0,0.0,0.0
1752616284251,275.44,-44.56,-97.75,0.0,0.0,9.81,1.0,0.0,0.0,0.0,0.0,0.0,0.0
1752616284373,282.69,-4.06,-71.0,0.0,0.0,9.81,1.0,0.0,0.0,0.0,0.0,0.0,0.0
1752616284498,328.31,2.94,-82.81,0.0,0.0,9.81,1.0,0.0,0.0,0.0,0.0,0.0,0.0
1752616284621,24.31,-16.75,-84.56,0.0,0.0,9.81,1.0,0.0,0.0,0.0,0.0,0.0,0.0
1752616284738,53.19,-32.31,-72.81,0.0,0.0,9.81,1.0,0.0,0.0,0.0,0.0,0.0,0.0
1752616284858,65.19,-43.5,-68.38,0.0,0.0,9.81,1.0,0.0,0.0,0.0,0.0,0.0,0.0
1752616285089,52.69,-48.06,-84.13,0.0,0.0,9.81,1.0,0.0,0.0,0.0,0.0,0.0,0.0
1752616285210,171.0,-41.81,-94.0,0.0,0.0,9.81,1.0,0.0,0.0,0.0,0.0,0.0,0.0
1752616285341,137.19,-25.38,-104.75,0.0,0.0,9.81,1.0,0.0,0.0,0.0,0.0,0.0,0.0
1752616285460,95.25,-15.31,-100.44,0.0,0.0,9.81,1.0,0.0,0.0,0.0,0.0,0.0,0.0
1752616285579,56.44,-14.5,-107.25,0.0,0.0,9.81,1.0,0.0,0.0,0.0,0.0,0.0,0.0
1752616285696,14.44,-10.0,-123.69,0.0,0.0,9.81,1.0,0.0,0.0,0.0,0.0,0.0,0.0
1752616285820,346.75,-7.19,-134.63,0.0,0.0,9.81,1.0,0.0,0.0,0.0,0.0,0.0,0.0
1752616285946,319.38,-1.0,-126.75,0.0,0.0,9.81,1.0,0.0,0.0,0.0,0.0,0.0,0.0
1752616286076,323.25,5.94,-120.19,0.0,0.0,9.81,1.0,0.0,0.0,0.0,0.0,0.0,0.0
1752616286192,3.25,2.19,-121.31,0.0,0.0,9.81,1.0,0.0,0.0,0.0,0.0,0.0,0.0
1752616286419,114.44,-16.88,-85.31,0.0,0.0,9.81,1.0,0.0,0.0,0.0,0.0,0.0,0.0
1752616286746,199.31,5.69,-56.06,0.0,0.0,9.81,1.0,0.0,0.0,0.0,0.0,0.0,0.0
1752616287064,116.63,1.06,-54.94,0.0,0.0,9.81,1.0,0.0,0.0,0.0,0.0,0.0,0.0
1752616287183,66.88,-0.06,-71.19,0.0,0.0,9.81,1.0,0.0,0.0,0.0,0.0,0.0,0.0
1752616287315,26.19,-1.06,-78.06,0.0,0.0,9.81,1.0,0.0,0.0,0.0,0.0,0.0,0.0
1752616287435,1.0,3.0,-75.38,0.0,0.0,9.81,1.0,0.0,0.0,0.0,0.0,0.0,0.0
1752616287653,330.44,9.88,-74.31,0.0,0.0,9.81,1.0,0.0,0.0,0.0,0.0,0.0,0.0
1752616287784,326.63,12.25,-74.06,0.0,0.0,9.81,1.0,0.0,0.0,0.0,0.0,0.0,0.0
1752616287904,337.63,11.13,-76.63,0.0,0.0,9.81,1.0,0.0,0.0,0.0,0.0,0.0,0.0
1752616288019,357.5,7.38,-80.94,0.0,0.0,9.81,1.0,0.0,0.0,0.0,0.0,0.0,0.0
1752616288144,26.5,1.5,-83.56,0.0,0.0,9.81,1.0,0.0,0.0,0.0,0.0,0.0,0.0
1752616288261,62.56,-2.0,-79.56,0.0,0.0,9.81,1.0,0.0,0.0,0.0,0.0,0.0,0.0
1752616288380,108.19,-2.63,-66.0,0.0,0.0,9.81,1.0,0.0,0.0,0.0,0.0,0.0,0.0
1752616288604,188.56,3.06,-56.5,0.0,0.0,9.81,1.0,0.0,0.0,0.0,0.0,0.0,0.0
1752616288734,202.56,3.75,-62.75,0.0,0.0,9.81,1.0,0.0,0.0,0.0,0.0,0.0,0.0
1752616288854,162.0,9.19,-55.31,0.0,0.0,9.81,1.0,0.0,0.0,0.0,0.0,0.0,0.0
1752616288985,111.56,6.0,-58.25,0.0,0.0,9.81,1.0,0.0,0.0,0.0,0.0,0.0,0.0
1752616289101,68.69,4.13,-70.5,0.0,0.0,9.81,1.0,0.0,0.0,0.0,0.0,0.0,0.0
1752616289221,31.06,6.44,-73.63,0.0,0.0,9.81,1.0,0.0,0.0,0.0,0.0,0.0,0.0
1752616289339,357.75,10.44,-73.13,0.0,0.0,9.81,1.0,0.0,0.0,0.0,0.0,0.0,0.0
1752616289472,326.69,14.06,-74.5,0.0,0.0,9.81,1.0,0.0,0.0,0.0,0.0,0.0,0.0
1752616289590,309.0,16.63,-73.44,0.0,0.0,9.81,1.0,0.0,0.0,0.0,0.0,0.0,0.0
1752616289707,302.63,18.63,-72.13,0.0,0.0,9.81,1.0,0.0,0.0,0.0,0.0,0.0,0.0
1752616289837,308.75,17.69,-75.94,0.0,0.0,9.81,1.0,0.0,0.0,0.0,0.0,0.0,0.0
1752616289955,321.63,14.44,-83.88,0.0,0.0,9.81,1.0,0.0,0.0,0.0,0.0,0.0,0.0
1752616290272,25.13,1.63,-101.5,0.0,0.0,9.81,1.0,0.0,0.0,0.0,0.0,0.0,0.0
1752616290393,51.88,-2.44,-107.19,0.0,0.0,9.81,1.0,0.0,0.0,0.0,0.0,0.0,0.0
1752616290525,82.56,-5.44,-106.44,0.0,0.0,9.81,1.0,0.0,0.0,0.0,0.0,0.0,0.0
1752616290642,106.19,-7.75,-105.69,0.0,0.0,9.81,1.0,0.0,0.0,0.0,0.0,0.0,0.0
1752616290862,125.81,-9.94,-109.81,0.0,0.0,9.81,1.0,0.0,0.0,0.0,0.0,0.0,0.0
1752616290993,125.13,-10.81,-108.31,0.0,0.0,9.81,1.0,0.0,0.0,0.0,0.0,0.0,0.0
1752616291111,110.06,-7.56,-105.5,0.0,0.0,9.81,1.0,0.0,0.0,0.0,0.0,0.0,0.0
1752616291229,85.94,-4.13,-102.75,0.0,0.0,9.81,1.0,0.0,0.0,0.0,0.0,0.0,0.0
1752616291552,354.69,12.88,-91.38,0.0,0.0,9.81,1.0,0.0,0.0,0.0,0.0,0.0,0.0
1752616291888,319.19,4.75,-99.94,0.0,0.0,9.81,1.0,0.0,0.0,0.0,0.0,0.0,0.0
1752616309907,0.0,0.0,0.0,0.0,0.0,9.81,1.0,0.0,0.0,0.0,0.0,0.0,0.0
1752616310028,4.38,-7.19,-4.56,0.0,0.0,9.81,1.0,0.0,0.0,0.0,0.0,0.0,0.0
1752616310147,339.63,-28.75,-7.63,0.0,0.0,9.81,1.0,0.0,0.0,0.0,0.0,0.0,0.0
1752616310278,279.44,-49.81,-44.38,0.0,0.0,9.81,1.0,0.0,0.0,0.0,0.0,0.0,0.0
1752616310399,251.19,-39.5,-80.06,0.0,0.0,9.81,1.0,0.0,0.0,0.0,0.0,0.0,0.0
1752616310517,258.25,-44.38,-73.56,0.0,0.0,9.81,1.0,0.0,0.0,0.0,0.0,0.0,0.0
1752616310845,293.0,-44.69,-56.94,0.0,0.0,9.81,1.0,0.0,0.0,0.0,0.0,0.0,0.0
1752616311068,9.94,-19.69,-11.31,0.0,0.0,9.81,1.0,0.0,0.0,0.0,0.0,0.0,0.0
1752616311197,34.81,-9.06,-17.5,0.0,0.0,9.81,1.0,0.0,0.0,0.0,0.0,0.0,0.0
1752616311313,30.94,-13.19,-22.06,0.0,0.0,9.81,1.0,0.0,0.0,0.0,0.0,0.0,0.0
1752616311434,344.75,-33.75,-25.88,0.0,0.0,9.81,1.0,0.0,0.0,0.0,0.0,0.0,0.0
1752616311563,271.94,-30.63,-57.44,0.0,0.0,9.81,1.0,0.0,0.0,0.0,0.0,0.0,0.0
1752616311782,259.44,-34.44,-72.63,0.0,0.0,9.81,1.0,0.0,0.0,0.0,0.0,0.0,0.0
1752616311997,284.88,-41.06,-57.44,0.0,0.0,9.81,1.0,0.0,0.0,0.0,0.0,0.0,0.0
1752616312331,28.69,-8.88,10.81,0.0,0.0,9.81,1.0,0.0,0.0,0.0,0.0,0.0,0.0
1752616312447,29.69,-6.94,11.94,0.0,0.0,9.81,1.0,0.0,0.0,0.0,0.0,0.0,0.0
1752616312686,305.94,-40.63,-48.88,0.0,0.0,9.81,1.0,0.0,0.0,0.0,0.0,0.0,0.0
1752616312894,258.81,-30.63,-67.38,0.0,0.0,9.81,1.0,0.0,0.0,0.0,0.0,0.0,0.0
1752616313020,259.69,-30.38,-71.5,0.0,0.0,9.81,1.0,0.0,0.0,0.0,0.0,0.0,0.0
1752616313138,276.56,-36.81,-68.94,0.0,0.0,9.81,1.0,0.0,0.0,0.0,0.0,0.0,0.0
1752616313253,299.69,-42.88,-59.81,0.0,0.0,9.81,1.0,0.0,0.0,0.0,0.0,0.0,0.0
1752616313380,331.69,-42.75,-33.13,0.0,0.0,9.81,1.0,0.0,0.0,0.0,0.0,0.0,0.0
1752616313507,355.88,-34.94,-17.06,0.0,0.0,9.81,1.0,0.0,0.0,0.0,0.0,0.0,0.0
1752616313626,14.31,12.63,11.81,0.0,0.0,9.81,1.0,0.0,0.0,0.0,0.0,0.0,0.0
1752616313843,41.25,68.38,19.31,0.0,0.0,9.81,1.0,0.0,0.0,0.0,0.0,0.0,0.0
1752616314077,53.94,77.25,-14.56,0.0,0.0,9.81,1.0,0.0,0.0,0.0,0.0,0.0,0.0
1752616314191,69.19,-7.19,-15.19,0.0,0.0,9.81,1.0,0.0,0.0,0.0,0.0,0.0,0.0
1752616314307,199.13,-8.38,-15.25,0.0,0.0,9.81,1.0,0.0,0.0,0.0,0.0,0.0,0.0
1752616314443,198.25,-13.06,-17.13,0.0,0.0,9.81,1.0,0.0,0.0,0.0,0.0,0.0,0.0
1752616314574,179.75,-26.5,-33.31,0.0,0.0,9.81,1.0,0.0,0.0,0.0,0.0,0.0,0.0
1752616314892,17.94,16.38,-90.81,0.0,0.0,9.81,1.0,0.0,0.0,0.0,0.0,0.0,0.0
1752616315008,33.13,14.0,-80.81,0.0,0.0,9.81,1.0,0.0,0.0,0.0,0.0,0.0,0.0
1752616315136,47.81,-5.94,-98.19,0.0,0.0,9.81,1.0,0.0,0.0,0.0,0.0,0.0,0.0
1752616315376,61.94,-21.88,-107.25,0.0,0.0,9.81,1.0,0.0,0.0,0.0,0.0,0.0,0.0
1752616315496,64.69,-21.75,-100.25,0.0,0.0,9.81,1.0,0.0,0.0,0.0,0.0,0.0,0.0
1752616315717,72.19,-16.63,-91.19,0.0,0.0,9.81,1.0,0.0,0.0,0.0,0.0,0.0,0.0
1752616315947,81.06,-9.38,-85.75,0.0,0.0,9.81,1.0,0.0,0.0,0.0,0.0,0.0,0.0
1752616316166,83.38,-10.94,-68.44,0.0,0.0,9.81,1.0,0.0,0.0,0.0,0.0,0.0,0.0
1752616316286,72.19,-5.13,-92.56,0.0,0.0,9.81,1.0,0.0,0.0,0.0,0.0,0.0,0.0
1752616316606,33.5,10.0,-110.13,0.0,0.0,9.81,1.0,0.0,0.0,0.0,0.0,0.0,0.0
1752616316732,33.31,8.31,-108.81,0.0,0.0,9.81,1.0,0.0,0.0,0.0,0.0,0.0,0.0
1752616316852,338.69,26.81,-111.56,0.0,0.0,9.81,1.0,0.0,0.0,0.0,0.0,0.0,0.0
1752616316984,311.94,25.75,-107.63,0.0,0.0,9.81,1.0,0.0,0.0,0.0,0.0,0.0,0.0
1752616317194,320.44,13.5,-102.31,0.0,0.0,9.81,1.0,0.0,0.0,0.0,0.0,0.0,0.0
1752616317519,123.88,-54.13,-103.13,0.0,0.0,9.81,1.0,0.0,0.0,0.0,0.0,0.0,0.0
1752616317642,148.75,-55.56,-83.0,0.0,0.0,9.81,1.0,0.0,0.0,0.0,0.0,0.0,0.0
1752616317856,135.13,-12.88,-86.31,0.0,0.0,9.81,1.0,0.0,0.0,0.0,0.0,0.0,0.0
1752616317989,136.5,1.5,-96.94,0.0,0.0,9.81,1.0,0.0,0.0,0.0,0.0,0.0,0.0
1752616318111,110.19,1.81,-111.56,0.0,0.0,9.81,1.0,0.0,0.0,0.0,0.0,0.0,0.0
1752616318232,50.06,4.31,-118.94,0.0,0.0,9.81,1.0,0.0,0.0,0.0,0.0,0.0,0.0
1752616318349,319.0,20.69,-113.19,0.0,0.0,9.81,1.0,0.0,0.0,0.0,0.0,0.0,0.0
1752616318472,321.5,23.0,-91.69,0.0,0.0,9.81,1.0,0.0,0.0,0.0,0.0,0.0,0.0
1752616318693,303.38,40.38,-67.19,0.0,0.0,9.81,1.0,0.0,0.0,0.0,0.0,0.0,0.0
1752616318810,282.5,41.56,-65.13,0.0,0.0,9.81,1.0,0.0,0.0,0.0,0.0,0.0,0.0
1752616318934,282.06,40.63,-68.81,0.0,0.0,9.81,1.0,0.0,0.0,0.0,0.0,0.0,0.0
1752616319058,291.88,35.56,-86.0,0.0,0.0,9.81,1.0,0.0,0.0,0.0,0.0,0.0,0.0
1752616319178,326.56,17.56,-99.69,0.0,0.0,9.81,1.0,0.0,0.0,0.0,0.0,0.0,0.0
1752616319295,55.5,-19.13,-94.13,0.0,0.0,9.81,1.0,0.0,0.0,0.0,0.0,0.0,0.0
1752616319412,102.94,-28.81,-79.06,0.0,0.0,9.81,1.0,0.0,0.0,0.0,0.0,0.0,0.0
1752616319641,170.56,-16.06,-45.0,0.0,0.0,9.81,1.0,0.0,0.0,0.0,0.0,0.0,0.0
1752616319761,167.63,-16.88,-79.44,0.0,0.0,9.81,1.0,0.0,0.0,0.0,0.0,0.0,0.0
1752616319879,121.25,-13.56,-101.25,0.0,0.0,9.81,1.0,0.0,0.0,0.0,0.0,0.0,0.0
1752616320100,322.5,29.25,-100.81,0.0,0.0,9.81,1.0,0.0,0.0,0.0,0.0,0.0,0.0
1752616320218,317.06,23.63,-83.38,0.0,0.0,9.81,1.0,0.0,0.0,0.0,0.0,0.0,0.0
1752616320452,264.81,32.56,-60.44,0.0,0.0,9.81,1.0,0.0,0.0,0.0,0.0,0.0,0.0
1752616320570,281.56,34.0,-46.69,0.0,0.0,9.81,1.0,0.0,0.0,0.0,0.0,0.0,0.0
1752616320688,294.06,32.88,-53.5,0.0,0.0,9.81,1.0,0.0,0.0,0.0,0.0,0.0,0.0
1752616320822,316.56,24.63,-74.31,0.0,0.0,9.81,1.0,0.0,0.0,0.0,0.0,0.0,0.0
1752616320931,355.56,10.19,-89.75,0.0,0.0,9.81,1.0,0.0,0.0,0.0,0.0,0.0,0.0
1752616321055,35.38,3.81,-103.5,0.0,0.0,9.81,1.0,0.0,0.0,0.0,0.0,0.0,0.0
1752616321176,87.06,-13.38,-98.38,0.0,0.0,9.81,1.0,0.0,0.0,0.0,0.0,0.0,0.0
1752616321295,116.94,-14.06,-104.81,0.0,0.0,9.81,1.0,0.0,0.0,0.0,0.0,0.0,0.0
1752616321515,120.75,16.25,-111.56,0.0,0.0,9.81,1.0,0.0,0.0,0.0,0.0,0.0,0.0
1752616321647,119.88,27.06,-100.69,0.0,0.0,9.81,1.0,0.0,0.0,0.0,0.0,0.0,0.0
1752616321862,76.25,55.44,-102.38,0.0,0.0,9.81,1.0,0.0,0.0,0.0,0.0,0.0,0.0
1752616321992,70.81,64.75,-72.56,0.0,0.0,9.81,1.0,0.0,0.0,0.0,0.0,0.0,0.0
1752616322228,52.63,42.94,-85.81,0.0,0.0,9.81,1.0,0.0,0.0,0.0,0.0,0.0,0.0
1752616322335,78.13,39.63,-86.13,0.0,0.0,9.81,1.0,0.0,0.0,0.0,0.0,0.0,0.0
1752616322567,117.88,14.69,-93.0,0.0,0.0,9.81,1.0,0.0,0.0,0.0,0.0,0.0,0.0
1752616322675,125.44,6.56,-90.5,0.0,0.0,9.81,1.0,0.0,0.0,0.0,0.0,0.0,0.0
1752616322802,85.06,19.25,-90.44,0.0,0.0,9.81,1.0,0.0,0.0,0.0,0.0,0.0,0.0
1752616322919,17.94,39.06,-70.25,0.0,0.0,9.81,1.0,0.0,0.0,0.0,0.0,0.0,0.0
1752616323252,28.0,16.88,-108.75,0.0,0.0,9.81,1.0,0.0,0.0,0.0,0.0,0.0,0.0
1752616323369,73.25,-8.0,-121.25,0.0,0.0,9.81,1.0,0.0,0.0,0.0,0.0,0.0,0.0
1752616323486,110.38,-29.5,-106.19,0.0,0.0,9.81,1.0,0.0,0.0,0.0,0.0,0.0,0.0
1752616323609,153.63,-48.88,-112.5,0.0,0.0,9.81,1.0,0.0,0.0,0.0,0.0,0.0,0.0
1752616323729,179.44,-62.75,-111.44,0.0,0.0,9.81,1.0,0.0,0.0,0.0,0.0,0.0,0.0
1752616323852,207.88,-66.44,-155.44,0.0,0.0,9.81,1.0,0.0,0.0,0.0,0.0,0.0,0.0
1752616323973,219.38,-61.63,-167.63,0.0,0.0,9.81,1.0,0.0,0.0,0.0,0.0,0.0,0.0
1752616324088,246.0,-46.38,172.0,0.0,0.0,9.81,1.0,0.0,0.0,0.0,0.0,0.0,0.0
1752616324211,218.81,-25.19,154.06,0.0,0.0,9.81,1.0,0.0,0.0,0.0,0.0,0.0,0.0
1752616324535,297.31,-37.06,120.75,0.0,0.0,9.81,1.0,0.0,0.0,0.0,0.0,0.0,0.0
1752616324655,295.44,-39.25,120.0,0.0,0.0,9.81,1.0,0.0,0.0,0.0,0.0,0.0,0.0
1752616324774,294.19,-42.06,131.5,0.0,0.0,9.81,1.0,0.0,0.0,0.0,0.0,0.0,0.0
1752616324905,256.81,-54.5,158.56,0.0,0.0,9.81,1.0,0.0,0.0,0.0,0.0,0.0,0.0
1752616325025,208.44,-60.0,-156.56,0.0,0.0,9.81,1.0,0.0,0.0,0.0,0.0,0.0,0.0
1752616325138,201.81,-55.25,-143.94,0.0,0.0,9.81,1.0,0.0,0.0,0.0,0.0,0.0,0.0
1752616325268,229.94,-50.44,-160.75,0.0,0.0,9.81,1.0,0.0,0.0,0.0,0.0,0.0,0.0
1752616325385,237.13,-50.94,-163.75,0.0,0.0,9.81,1.0,0.0,0.0,0.0,0.0,0.0,0.0
1752616325509,243.06,-53.56,-166.94,0.0,0.0,9.81,1.0,0.0,0.0,0.0,0.0,0.0,0.0
1752616325630,248.06,-55.88,-169.5,0.0,0.0,9.81,1.0,0.0,0.0,0.0,0.0,0.0,0.0
1752616325762,251.44,-56.94,-171.19,0.0,0.0,9.81,1.0,0.0,0.0,0.0,0.0,0.0,0.0
1752616325878,254.25,-56.88,-172.44,0.0,0.0,9.81,1.0,0.0,0.0,0.0,0.0,0.0,0.0
1752616326207,253.75,-57.19,-172.19,0.0,0.0,9.81,1.0,0.0,0.0,0.0,0.0,0.0,0.0
1752616326331,251.13,-57.69,-170.06,0.0,0.0,9.81,1.0,0.0,0.0,0.0,0.0,0.0,0.0
1752616326463,250.44,-57.94,-169.25,0.0,0.0,9.81,1.0,0.0,0.0,0.0,0.0,0.0,0.0
1752616326688,251.69,-57.44,-168.94,0.0,0.0,9.81,1.0,0.0,0.0,0.0,0.0,0.0,0.0
1752616326818,252.38,-57.19,-168.94,0.0,0.0,9.81,1.0,0.0,0.0,0.0,0.0,0.0,0.0
1752616326936,252.13,-56.75,-168.94,0.0,0.0,9.81,1.0,0.0,0.0,0.0,0.0,0.0,0.0
1752616327265,254.69,-56.38,-169.88,0.0,0.0,9.81,1.0,0.0,0.0,0.0,0.0,0.0,0.0
1752616327588,255.56,-56.25,-169.44,0.0,0.0,9.81,1.0,0.0,0.0,0.0,0.0,0.0,0.0
1752616327816,255.13,-55.5,-168.56,0.0,0.0,9.81,1.0,0.0,0.0,0.0,0.0,0.0,0.0
1752616327943,254.81,-54.88,-167.63,0.0,0.0,9.81,1.0,0.0,0.0,0.0,0.0,0.0,0.0
1752616328375,254.75,-53.63,-167.38,0.0,0.0,9.81,1.0,0.0,0.0,0.0,0.0,0.0,0.0
1752616328491,253.19,-53.63,-165.94,0.0,0.0,9.81,1.0,0.0,0.0,0.0,0.0,0.0,0.0
1752616328822,252.25,-52.88,-165.31,0.0,0.0,9.81,1.0,0.0,0.0,0.0,0.0,0.0,0.0
1752616329050,250.56,-49.69,-162.19,0.0,0.0,9.81,1.0,0.0,0.0,0.0,0.0,0.0,0.0
1752616329174,235.19,-45.88,-159.13,0.0,0.0,9.81,1.0,0.0,0.0,0.0,0.0,0.0,0.0
1752616329292,271.5,-37.94,-156.56,0.0,0.0,9.81,1.0,0.0,0.0,0.0,0.0,0.0,0.0
1752616329420,188.63,-33.19,-144.88,0.0,0.0,9.81,1.0,0.0,0.0,0.0,0.0,0.0,0.0
1752616329535,174.31,-28.31,-140.81,0.0,0.0,9.81,1.0,0.0,0.0,0.0,0.0,0.0,0.0
1752616329658,155.75,-23.0,-136.19,0.0,0.0,9.81,1.0,0.0,0.0,0.0,0.0,0.0,0.0
1752616329787,138.19,-16.75,-133.69,0.0,0.0,9.81,1.0,0.0,0.0,0.0,0.0,0.0,0.0
1752616329905,126.13,-12.44,-134.56,0.0,0.0,9.81,1.0,0.0,0.0,0.0,0.0,0.0,0.0
1752616330033,271.31,-7.63,-137.5,0.0,0.0,9.81,1.0,0.0,0.0,0.0,0.0,0.0,0.0
1752616330156,111.44,-6.38,-134.44,0.0,0.0,9.81,1.0,0.0,0.0,0.0,0.0,0.0,0.0
1752616330279,117.94,-6.81,-125.44,0.0,0.0,9.81,1.0,0.0,0.0,0.0,0.0,0.0,0.0
1752616330397,132.31,-12.06,-127.63,0.0,0.0,9.81,1.0,0.0,0.0,0.0,0.0,0.0,0.0
1752616330524,150.56,-18.81,-133.44,0.0,0.0,9.81,1.0,0.0,0.0,0.0,0.0,0.0,0.0
1752616330652,195.13,-34.56,-147.88,0.0,0.0,9.81,1.0,0.0,0.0,0.0,0.0,0.0,0.0
1752616330771,259.81,-56.44,-177.25,0.0,0.0,9.81,1.0,0.0,0.0,0.0,0.0,0.0,0.0
1752616330890,284.44,-64.0,158.31,0.0,0.0,9.81,1.0,0.0,0.0,0.0,0.0,0.0,0.0
1752616331012,284.31,-73.0,142.31,0.0,0.0,9.81,1.0,0.0,0.0,0.0,0.0,0.0,0.0
1752616331135,262.5,-86.63,176.94,0.0,0.0,9.81,1.0,0.0,0.0,0.0,0.0,0.0,0.0
1752616331254,269.56,-85.81,2.06,0.0,0.0,9.81,1.0,0.0,0.0,0.0,0.0,0.0,0.0
1752616331388,311.44,-85.75,-1.0,0.0,0.0,9.81,1.0,0.0,0.0,0.0,0.0,0.0,0.0
1752616331497,355.75,-77.63,-0.63,0.0,0.0,9.81,1.0,0.0,0.0,0.0,0.0,0.0,0.0
1752616331614,20.13,-70.0,9.94,0.0,0.0,9.81,1.0,0.0,0.0,0.0,0.0,0.0,0.0
1752616331740,16.56,-65.69,71.38,0.0,0.0,9.81,1.0,0.0,0.0,0.0,0.0,0.0,0.0
1752616331860,311.56,-66.63,134.81,0.0,0.0,9.81,1.0,0.0,0.0,0.0,0.0,0.0,0.0
1752616331999,215.63,-77.0,159.13,0.0,0.0,9.81,1.0,0.0,0.0,0.0,0.0,0.0,0.0
1752616332204,287.94,-80.31,118.0,0.0,0.0,9.81,1.0,0.0,0.0,0.0,0.0,0.0,0.0
1752616332337,317.88,-73.75,103.88,0.0,0.0,9.81,1.0,0.0,0.0,0.0,0.0,0.0,0.0
1752616332457,308.0,-74.81,95.81,0.0,0.0,9.81,1.0,0.0,0.0,0.0,0.0,0.0,0.0
1752616332574,287.56,-73.19,90.88,0.0,0.0,9.81,1.0,0.0,0.0,0.0,0.0,0.0,0.0
1752616332700,248.56,-82.5,32.31,0.0,0.0,9.81,1.0,0.0,0.0,0.0,0.0,0.0,0.0
1752616332824,166.75,-71.44,-111.5,0.0,0.0,9.81,1.0,0.0,0.0,0.0,0.0,0.0,0.0
1752616332945,122.38,-67.38,-81.75,0.0,0.0,9.81,1.0,0.0,0.0,0.0,0.0,0.0,0.0
1752616333063,101.19,-75.75,-71.88,0.0,0.0,9.81,1.0,0.0,0.0,0.0,0.0,0.0,0.0
1752616333197,191.94,-74.38,122.56,0.0,0.0,9.81,1.0,0.0,0.0,0.0,0.0,0.0,0.0
1752616333312,233.06,-68.13,91.25,0.0,0.0,9.81,1.0,0.0,0.0,0.0,0.0,0.0,0.0
1752616333432,234.88,-65.06,114.5,0.0,0.0,9.81,1.0,0.0,0.0,0.0,0.0,0.0,0.0
1752616333551,224.75,-61.5,95.31,0.0,0.0,9.81,1.0,0.0,0.0,0.0,0.0,0.0,0.0
1752616333677,192.5,-64.31,-173.81,0.0,0.0,9.81,1.0,0.0,0.0,0.0,0.0,0.0,0.0
1752616333805,239.31,-5.63,162.0,0.0,0.0,9.81,1.0,0.0,0.0,0.0,0.0,0.0,0.0
1752616333921,236.75,9.75,153.63,0.0,0.0,9.81,1.0,0.0,0.0,0.0,0.0,0.0,0.0
1752616334043,229.69,1.56,153.0,0.0,0.0,9.81,1.0,0.0,0.0,0.0,0.0,0.0,0.0
1752616334162,226.88,-31.0,170.38,0.0,0.0,9.81,1.0,0.0,0.0,0.0,0.0,0.0,0.0
1752616334283,213.69,-58.13,-171.06,0.0,0.0,9.81,1.0,0.0,0.0,0.0,0.0,0.0,0.0
1752616334417,196.63,-66.5,-148.81,0.0,0.0,9.81,1.0,0.0,0.0,0.0,0.0,0.0,0.0
1752616334536,202.0,-67.19,-151.19,0.0,0.0,9.81,1.0,0.0,0.0,0.0,0.0,0.0,0.0
1752616334655,208.56,-68.94,-149.94,0.0,0.0,9.81,1.0,0.0,0.0,0.0,0.0,0.0,0.0
1752616334794,192.19,-67.0,-120.0,0.0,0.0,9.81,1.0,0.0,0.0,0.0,0.0,0.0,0.0
1752616334907,153.0,-62.0,-77.81,0.0,0.0,9.81,1.0,0.0,0.0,0.0,0.0,0.0,0.0
1752616335033,137.19,-63.44,6.25,0.0,0.0,9.81,1.0,0.0,0.0,0.0,0.0,0.0,0.0
1752616335161,126.63,-59.56,47.69,0.0,0.0,9.81,1.0,0.0,0.0,0.0,0.0,0.0,0.0
1752616335271,157.31,-46.94,-130.0,0.0,0.0,9.81,1.0,0.0,0.0,0.0,0.0,0.0,0.0
1752616335404,244.75,-33.25,-173.38,0.0,0.0,9.81,1.0,0.0,0.0,0.0,0.0,0.0,0.0
1752616335522,248.63,-34.06,165.69,0.0,0.0,9.81,1.0,0.0,0.0,0.0,0.0,0.0,0.0
1752616335639,238.44,-38.31,170.06,0.0,0.0,9.81,1.0,0.0,0.0,0.0,0.0,0.0,0.0
1752616335761,219.69,-55.69,-178.25,0.0,0.0,9.81,1.0,0.0,0.0,0.0,0.0,0.0,0.0
1752616335887,201.19,-62.63,-169.75,0.0,0.0,9.81,1.0,0.0,0.0,0.0,0.0,0.0,0.0
1752616336014,195.13,-65.69,-167.5,0.0,0.0,9.81,1.0,0.0,0.0,0.0,0.0,0.0,0.0
1752616336131,186.81,-65.38,-161.44,0.0,0.0,9.81,1.0,0.0,0.0,0.0,0.0,0.0,0.0
1752616336250,179.38,-55.94,-147.69,0.0,0.0,9.81,1.0,0.0,0.0,0.0,0.0,0.0,0.0
1752616336368,168.25,-50.06,-137.25,0.0,0.0,9.81,1.0,0.0,0.0,0.0,0.0,0.0,0.0
1752616336489,166.25,-52.06,-124.94,0.0,0.0,9.81,1.0,0.0,0.0,0.0,0.0,0.0,0.0
1752616336614,160.94,-52.5,-114.88,0.0,0.0,9.81,1.0,0.0,0.0,0.0,0.0,0.0,0.0
1752616336739,157.69,-54.25,-101.25,0.0,0.0,9.81,1.0,0.0,0.0,0.0,0.0,0.0,0.0
1752616336876,176.0,-57.81,-105.25,0.0,0.0,9.81,1.0,0.0,0.0,0.0,0.0,0.0,0.0
1752616336990,189.63,-64.25,-91.88,0.0,0.0,9.81,1.0,0.0,0.0,0.0,0.0,0.0,0.0
1752616337321,231.81,-66.19,-115.38,0.0,0.0,9.81,1.0,0.0,0.0,0.0,0.0,0.0,0.0
1752616337426,253.06,-63.63,-164.88,0.0,0.0,9.81,1.0,0.0,0.0,0.0,0.0,0.0,0.0
1752616337557,272.06,-48.88,164.94,0.0,0.0,9.81,1.0,0.0,0.0,0.0,0.0,0.0,0.0
1752616337782,215.94,-37.06,162.75,0.0,0.0,9.81,1.0,0.0,0.0,0.0,0.0,0.0,0.0
1752616337898,199.69,-43.25,170.75,0.0,0.0,9.81,1.0,0.0,0.0,0.0,0.0,0.0,0.0
1752616338021,187.94,-52.06,179.63,0.0,0.0,9.81,1.0,0.0,0.0,0.0,0.0,0.0,0.0
1752616338155,177.88,-57.25,-176.06,0.0,0.0,9.81,1.0,0.0,0.0,0.0,0.0,0.0,0.0
1752616338278,175.81,-60.06,-174.38,0.0,0.0,9.81,1.0,0.0,0.0,0.0,0.0,0.0,0.0
1752616338496,160.69,-62.63,-158.81,0.0,0.0,9.81,1.0,0.0,0.0,0.0,0.0,0.0,0.0
1752616338627,151.0,-64.31,-147.75,0.0,0.0,9.81,1.0,0.0,0.0,0.0,0.0,0.0,0.0
1752616338740,144.69,-66.31,-139.25,0.0,0.0,9.81,1.0,0.0,0.0,0.0,0.0,0.0,0.0
1752616338860,130.19,-60.06,-129.94,0.0,0.0,9.81,1.0,0.0,0.0,0.0,0.0,0.0,0.0
1752616338986,125.19,-60.69,-119.75,0.0,0.0,9.81,1.0,0.0,0.0,0.0,0.0,0.0,0.0
1752616339111,120.63,-66.38,-98.69,0.0,0.0,9.81,1.0,0.0,0.0,0.0,0.0,0.0,0.0
1752616339227,96.94,-61.25,-98.44,0.0,0.0,9.81,1.0,0.0,0.0,0.0,0.0,0.0,0.0
1752616339361,79.25,-58.63,-99.94,0.0,0.0,9.81,1.0,0.0,0.0,0.0,0.0,0.0,0.0
1752616339479,70.69,-59.19,-100.63,0.0,0.0,9.81,1.0,0.0,0.0,0.0,0.0,0.0,0.0
1752616339699,31.94,-54.94,-98.44,0.0,0.0,9.81,1.0,0.0,0.0,0.0,0.0,0.0,0.0
1752616339818,29.69,-55.31,-115.44,0.0,0.0,9.81,1.0,0.0,0.0,0.0,0.0,0.0,0.0
1752616339952,27.13,-57.19,-116.25,0.0,0.0,9.81,1.0,0.0,0.0,0.0,0.0,0.0,0.0
1752616340277,70.13,-60.88,-149.44,0.0,0.0,9.81,1.0,0.0,0.0,0.0,0.0,0.0,0.0
1752616340493,62.69,-60.0,-141.06,0.0,0.0,9.81,1.0,0.0,0.0,0.0,0.0,0.0,0.0
1752616340613,54.88,-30.63,-99.63,0.0,0.0,9.81,1.0,0.0,0.0,0.0,0.0,0.0,0.0
1752616340732,58.13,-18.69,-76.38,0.0,0.0,9.81,1.0,0.0,0.0,0.0,0.0,0.0,0.0
1752616341156,159.0,-42.94,177.81,0.0,0.0,9.81,1.0,0.0,0.0,0.0,0.0,0.0,0.0
1752616341275,156.38,-38.38,-174.0,0.0,0.0,9.81,1.0,0.0,0.0,0.0,0.0,0.0,0.0
1752616341407,111.5,-46.31,-156.88,0.0,0.0,9.81,1.0,0.0,0.0,0.0,0.0,0.0,0.0
1752616341528,75.44,-50.19,-132.19,0.0,0.0,9.81,1.0,0.0,0.0,0.0,0.0,0.0,0.0
1752616341646,69.13,-54.5,-123.31,0.0,0.0,9.81,1.0,0.0,0.0,0.0,0.0,0.0,0.0
1752616341778,187.88,-58.44,153.5,0.0,0.0,9.81,1.0,0.0,0.0,0.0,0.0,0.0,0.0
1752616341893,215.06,-62.0,123.5,0.0,0.0,9.81,1.0,0.0,0.0,0.0,0.0,0.0,0.0
1752616342124,66.25,-4.38,-109.13,0.0,0.0,9.81,1.0,0.0,0.0,0.0,0.0,0.0,0.0
1752616342234,24.0,26.0,-112.38,0.0,0.0,9.81,1.0,0.0,0.0,0.0,0.0,0.0,0.0
1752616342354,3.69,24.75,-113.63,0.0,0.0,9.81,1.0,0.0,0.0,0.0,0.0,0.0,0.0
1752616342481,203.38,-8.13,-136.19,0.0,0.0,9.81,1.0,0.0,0.0,0.0,0.0,0.0,0.0
1752616342600,170.81,-29.69,-166.75,0.0,0.0,9.81,1.0,0.0,0.0,0.0,0.0,0.0,0.0
1752616342718,126.25,-29.56,158.13,0.0,0.0,9.81,1.0,0.0,0.0,0.0,0.0,0.0,0.0
1752616342837,94.94,-20.13,149.94,0.0,0.0,9.81,1.0,0.0,0.0,0.0,0.0,0.0,0.0
1752616342973,153.75,-34.38,147.06,0.0,0.0,9.81,1.0,0.0,0.0,0.0,0.0,0.0,0.0
1752616343082,154.0,-40.81,128.31,0.0,0.0,9.81,1.0,0.0,0.0,0.0,0.0,0.0,0.0
1752616343209,135.69,-34.25,57.63,0.0,0.0,9.81,1.0,0.0,0.0,0.0,0.0,0.0,0.0
1752616343336,105.13,-13.13,-19.88,0.0,0.0,9.81,1.0,0.0,0.0,0.0,0.0,0.0,0.0
1752616343458,84.44,-15.38,-88.44,0.0,0.0,9.81,1.0,0.0,0.0,0.0,0.0,0.0,0.0
1752616343584,245.69,-51.56,160.38,0.0,0.0,9.81,1.0,0.0,0.0,0.0,0.0,0.0,0.0
1752616343716,314.94,-17.25,111.31,0.0,0.0,9.81,1.0,0.0,0.0,0.0,0.0,0.0,0.0
1752616343839,123.56,-55.06,-69.38,0.0,0.0,9.81,1.0,0.0,0.0,0.0,0.0,0.0,0.0
1752616343956,158.56,-71.5,-170.13,0.0,0.0,9.81,1.0,0.0,0.0,0.0,0.0,0.0,0.0
1752616344385,150.56,-64.75,-138.44,0.0,0.0,9.81,1.0,0.0,0.0,0.0,0.0,0.0,0.0
1752616344603,132.19,-64.75,-128.75,0.0,0.0,9.81,1.0,0.0,0.0,0.0,0.0,0.0,0.0
1752616344829,139.25,-64.63,-149.88,0.0,0.0,9.81,1.0,0.0,0.0,0.0,0.0,0.0,0.0
1752616344957,133.19,-59.31,-138.25,0.0,0.0,9.81,1.0,0.0,0.0,0.0,0.0,0.0,0.0
1752616345089,98.44,-58.06,-146.31,0.0,0.0,9.81,1.0,0.0,0.0,0.0,0.0,0.0,0.0
1752616345315,105.38,-53.31,-154.69,0.0,0.0,9.81,1.0,0.0,0.0,0.0,0.0,0.0,0.0
1752616345434,129.25,-60.69,-135.56,0.0,0.0,9.81,1.0,0.0,0.0,0.0,0.0,0.0,0.0
1752616345653,115.63,-58.75,-135.06,0.0,0.0,9.81,1.0,0.0,0.0,0.0,0.0,0.0,0.0
1752616345778,199.06,-70.5,116.69,0.0,0.0,9.81,1.0,0.0,0.0,0.0,0.0,0.0,0.0
1752616346007,41.56,57.88,-22.13,0.0,0.0,9.81,1.0,0.0,0.0,0.0,0.0,0.0,0.0
1752616346122,79.81,-1.75,-86.44,0.0,0.0,9.81,1.0,0.0,0.0,0.0,0.0,0.0,0.0
1752616346246,168.19,-50.13,-164.38,0.0,0.0,9.81,1.0,0.0,0.0,0.0,0.0,0.0,0.0
1752616346383,35.31,-1.19,-87.13,0.0,0.0,9.81,1.0,0.0,0.0,0.0,0.0,0.0,0.0
1752616346599,88.0,-31.19,-113.38,0.0,0.0,9.81,1.0,0.0,0.0,0.0,0.0,0.0,0.0
1752616346718,193.69,-55.13,164.75,0.0,0.0,9.81,1.0,0.0,0.0,0.0,0.0,0.0,0.0
1752616346834,221.38,-44.75,139.06,0.0,0.0,9.81,1.0,0.0,0.0,0.0,0.0,0.0,0.0
1752616346953,176.63,-63.81,175.06,0.0,0.0,9.81,1.0,0.0,0.0,0.0,0.0,0.0,0.0
1752616347084,41.19,21.81,-58.44,0.0,0.0,9.81,1.0,0.0,0.0,0.0,0.0,0.0,0.0
1752616347203,104.19,-25.31,-132.0,0.0,0.0,9.81,1.0,0.0,0.0,0.0,0.0,0.0,0.0
1752616347324,166.19,-44.69,-163.0,0.0,0.0,9.81,1.0,0.0,0.0,0.0,0.0,0.0,0.0
1752616347459,207.44,-52.75,156.0,0.0,0.0,9.81,1.0,0.0,0.0,0.0,0.0,0.0,0.0
1752616347576,208.56,-43.06,141.56,0.0,0.0,9.81,1.0,0.0,0.0,0.0,0.0,0.0,0.0
1752616347695,112.88,-36.19,164.94,0.0,0.0,9.81,1.0,0.0,0.0,0.0,0.0,0.0,0.0
1752616347814,94.31,-46.25,-170.0,0.0,0.0,9.81,1.0,0.0,0.0,0.0,0.0,0.0,0.0
1752616347942,78.0,-38.81,-113.25,0.0,0.0,9.81,1.0,0.0,0.0,0.0,0.0,0.0,0.0
1752616348156,15.88,33.63,-79.63,0.0,0.0,9.81,1.0,0.0,0.0,0.0,0.0,0.0,0.0
1752616348282,33.75,14.38,-76.63,0.0,0.0,9.81,1.0,0.0,0.0,0.0,0.0,0.0,0.0
1752616348497,89.06,-76.94,-59.75,0.0,0.0,9.81,1.0,0.0,0.0,0.0,0.0,0.0,0.0
1752616348631,136.81,-46.44,90.69,0.0,0.0,9.81,1.0,0.0,0.0,0.0,0.0,0.0,0.0
1752616348751,140.06,-56.88,76.0,0.0,0.0,9.81,1.0,0.0,0.0,0.0,0.0,0.0,0.0
1752616348872,42.56,-30.13,-73.0,0.0,0.0,9.81,1.0,0.0,0.0,0.0,0.0,0.0,0.0
1752616349009,28.88,-6.13,-129.31,0.0,0.0,9.81,1.0,0.0,0.0,0.0,0.0,0.0,0.0
1752616349211,41.44,-15.13,-123.94,0.0,0.0,9.81,1.0,0.0,0.0,0.0,0.0,0.0,0.0
1752616349334,71.75,-33.81,-124.56,0.0,0.0,9.81,1.0,0.0,0.0,0.0,0.0,0.0,0.0
1752616349555,104.06,-78.81,84.94,0.0,0.0,9.81,1.0,0.0,0.0,0.0,0.0,0.0,0.0
1752616349681,134.0,-18.19,82.13,0.0,0.0,9.81,1.0,0.0,0.0,0.0,0.0,0.0,0.0
1752616349809,141.94,3.88,96.75,0.0,0.0,9.81,1.0,0.0,0.0,0.0,0.0,0.0,0.0
1752616349929,164.38,12.25,129.19,0.0,0.0,9.81,1.0,0.0,0.0,0.0,0.0,0.0,0.0
1752616350048,201.94,20.19,120.13,0.0,0.0,9.81,1.0,0.0,0.0,0.0,0.0,0.0,0.0
1752616350177,178.69,-1.44,120.13,0.0,0.0,9.81,1.0,0.0,0.0,0.0,0.0,0.0,0.0
1752616350297,53.69,-9.81,140.38,0.0,0.0,9.81,1.0,0.0,0.0,0.0,0.0,0.0,0.0
1752616350419,81.19,17.88,147.19,0.0,0.0,9.81,1.0,0.0,0.0,0.0,0.0,0.0,0.0
1752616350548,0.69,33.81,121.88,0.0,0.0,9.81,1.0,0.0,0.0,0.0,0.0,0.0,0.0
1752616350662,358.63,29.69,120.25,0.0,0.0,9.81,1.0,0.0,0.0,0.0,0.0,0.0,0.0
1752616350785,119.19,18.94,148.0,0.0,0.0,9.81,1.0,0.0,0.0,0.0,0.0,0.0,0.0
1752616351007,122.56,-0.5,-152.44,0.0,0.0,9.81,1.0,0.0,0.0,0.0,0.0,0.0,0.0
1752616351144,25.69,-41.13,-144.0,0.0,0.0,9.81,1.0,0.0,0.0,0.0,0.0,0.0,0.0
1752616351247,47.88,-71.63,-120.38,0.0,0.0,9.81,1.0,0.0,0.0,0.0,0.0,0.0,0.0
1752616351367,57.19,-52.94,-17.31,0.0,0.0,9.81,1.0,0.0,0.0,0.0,0.0,0.0,0.0
1752616351503,68.56,-9.63,7.75,0.0,0.0,9.81,1.0,0.0,0.0,0.0,0.0,0.0,0.0
1752616351615,68.63,4.25,-1.44,0.0,0.0,9.81,1.0,0.0,0.0,0.0,0.0,0.0,0.0
1752616351743,73.31,7.5,-6.25,0.0,0.0,9.81,1.0,0.0,0.0,0.0,0.0,0.0,0.0
1752616351861,74.0,3.5,-9.06,0.0,0.0,9.81,1.0,0.0,0.0,0.0,0.0,0.0,0.0
1752616352087,73.81,3.06,-5.0,0.0,0.0,9.81,1.0,0.0,0.0,0.0,0.0,0.0,0.0
1752616352208,69.06,6.69,-9.25,0.0,0.0,9.81,1.0,0.0,0.0,0.0,0.0,0.0,0.0
1752616352344,58.19,4.31,-11.75,0.0,0.0,9.81,1.0,0.0,0.0,0.0,0.0,0.0,0.0
1752616352453,45.75,-2.38,-12.25,0.0,0.0,9.81,1.0,0.0,0.0,0.0,0.0,0.0,0.0
1752616352574,45.56,-5.69,-16.31,0.0,0.0,9.81,1.0,0.0,0.0,0.0,0.0,0.0,0.0
1752616352701,52.06,-3.19,-22.56,0.0,0.0,9.81,1.0,0.0,0.0,0.0,0.0,0.0,0.0
1752616352817,58.19,0.06,-24.0,0.0,0.0,9.81,1.0,0.0,0.0,0.0,0.0,0.0,0.0
1752616352940,69.5,0.44,-24.25,0.0,0.0,9.81,1.0,0.0,0.0,0.0,0.0,0.0,0.0
1752616353060,78.88,1.25,-23.44,0.0,0.0,9.81,1.0,0.0,0.0,0.0,0.0,0.0,0.0
1752616353198,84.94,0.81,-26.38,0.0,0.0,9.81,1.0,0.0,0.0,0.0,0.0,0.0,0.0
1752616353312,78.69,-0.56,-24.5,0.0,0.0,9.81,1.0,0.0,0.0,0.0,0.0,0.0,0.0
1752616353535,45.75,-3.88,-15.69,0.0,0.0,9.81,1.0,0.0,0.0,0.0,0.0,0.0,0.0
1752616353662,32.63,-4.63,-11.31,0.0,0.0,9.81,1.0,0.0,0.0,0.0,0.0,0.0,0.0
1752616353780,24.56,-6.0,-8.31,0.0,0.0,9.81,1.0,0.0,0.0,0.0,0.0,0.0,0.0
1752616353912,22.69,-6.5,-7.56,0.0,0.0,9.81,1.0,0.0,0.0,0.0,0.0,0.0,0.0
1752616354027,30.75,-5.19,-8.44,0.0,0.0,9.81,1.0,0.0,0.0,0.0,0.0,0.0,0.0
1752616354144,48.19,-3.19,-10.88,0.0,0.0,9.81,1.0,0.0,0.0,0.0,0.0,0.0,0.0
1752616354273,67.56,-1.0,-14.88,0.0,0.0,9.81,1.0,0.0,0.0,0.0,0.0,0.0,0.0
1752616354395,86.69,0.06,-19.0,0.0,0.0,9.81,1.0,0.0,0.0,0.0,0.0,0.0,0.0
1752616354519,99.94,0.19,-21.63,0.0,0.0,9.81,1.0,0.0,0.0,0.0,0.0,0.0,0.0
1752616354839,117.19,1.06,-21.94,0.0,0.0,9.81,1.0,0.0,0.0,0.0,0.0,0.0,0.0
1752616354970,125.75,1.88,-20.5,0.0,0.0,9.81,1.0,0.0,0.0,0.0,0.0,0.0,0.0
1752616355082,146.38,5.06,-19.31,0.0,0.0,9.81,1.0,0.0,0.0,0.0,0.0,0.0,0.0
1752616355215,181.44,9.88,-5.06,0.0,0.0,9.81,1.0,0.0,0.0,0.0,0.0,0.0,0.0
1752616355327,209.31,9.25,8.44,0.0,0.0,9.81,1.0,0.0,0.0,0.0,0.0,0.0,0.0
1752616355450,237.06,7.94,1.69,0.0,0.0,9.81,1.0,0.0,0.0,0.0,0.0,0.0,0.0
1752616355570,254.06,7.0,-11.06,0.0,0.0,9.81,1.0,0.0,0.0,0.0,0.0,0.0,0.0
1752616355785,265.0,6.75,-19.13,0.0,0.0,9.81,1.0,0.0,0.0,0.0,0.0,0.0,0.0
1752616356018,263.44,5.44,-19.94,0.0,0.0,9.81,1.0,0.0,0.0,0.0,0.0,0.0,0.0
1752616356236,255.25,6.44,-17.94,0.0,0.0,9.81,1.0,0.0,0.0,0.0,0.0,0.0,0.0
1752616356357,228.44,9.94,-1.63,0.0,0.0,9.81,1.0,0.0,0.0,0.0,0.0,0.0,0.0
1752616356476,181.13,-4.13,12.63,0.0,0.0,9.81,1.0,0.0,0.0,0.0,0.0,0.0,0.0
1752616356601,144.88,-30.56,-21.19,0.0,0.0,9.81,1.0,0.0,0.0,0.0,0.0,0.0,0.0
1752616356727,124.88,-38.19,-58.5,0.0,0.0,9.81,1.0,0.0,0.0,0.0,0.0,0.0,0.0
1752616356848,104.63,-35.94,-104.25,0.0,0.0,9.81,1.0,0.0,0.0,0.0,0.0,0.0,0.0
1752616356964,95.44,-34.13,-125.44,0.0,0.0,9.81,1.0,0.0,0.0,0.0,0.0,0.0,0.0
1752616357082,106.75,-37.81,-141.56,0.0,0.0,9.81,1.0,0.0,0.0,0.0,0.0,0.0,0.0
1752616357215,170.81,-47.56,171.81,0.0,0.0,9.81,1.0,0.0,0.0,0.0,0.0,0.0,0.0
1752616357322,172.75,-59.19,131.69,0.0,0.0,9.81,1.0,0.0,0.0,0.0,0.0,0.0,0.0
1752616357543,207.0,-35.94,92.31,0.0,0.0,9.81,1.0,0.0,0.0,0.0,0.0,0.0,0.0
1752616357666,219.56,-42.75,110.94,0.0,0.0,9.81,1.0,0.0,0.0,0.0,0.0,0.0,0.0
1752616357791,170.06,-23.13,162.81,0.0,0.0,9.81,1.0,0.0,0.0,0.0,0.0,0.0,0.0
1752616357911,193.44,32.81,155.13,0.0,0.0,9.81,1.0,0.0,0.0,0.0,0.0,0.0,0.0
1752616358028,138.0,37.19,147.81,0.0,0.0,9.81,1.0,0.0,0.0,0.0,0.0,0.0,0.0
1752616358153,213.31,30.19,145.75,0.0,0.0,9.81,1.0,0.0,0.0,0.0,0.0,0.0,0.0
1752616358276,218.25,27.63,143.0,0.0,0.0,9.81,1.0,0.0,0.0,0.0,0.0,0.0,0.0
1752616358401,91.0,12.88,136.0,0.0,0.0,9.81,1.0,0.0,0.0,0.0,0.0,0.0,0.0
1752616358536,245.5,3.0,139.19,0.0,0.0,9.81,1.0,0.0,0.0,0.0,0.0,0.0,0.0
1752616358652,246.19,-3.63,147.5,0.0,0.0,9.81,1.0,0.0,0.0,0.0,0.0,0.0,0.0
1752616358885,243.94,-10.88,163.63,0.0,0.0,9.81,1.0,0.0,0.0,0.0,0.0,0.0,0.0
1752616359002,242.13,-15.63,159.25,0.0,0.0,9.81,1.0,0.0,0.0,0.0,0.0,0.0,0.0
1752616359132,357.06,-22.31,134.44,0.0,0.0,9.81,1.0,0.0,0.0,0.0,0.0,0.0,0.0
1752616359241,330.13,-35.81,124.0,0.0,0.0,9.81,1.0,0.0,0.0,0.0,0.0,0.0,0.0
1752616359368,245.94,-73.56,165.56,0.0,0.0,9.81,1.0,0.0,0.0,0.0,0.0,0.0,0.0
1752616359487,200.81,-75.56,-76.13,0.0,0.0,9.81,1.0,0.0,0.0,0.0,0.0,0.0,0.0
1752616359607,168.75,-57.63,-38.31,0.0,0.0,9.81,1.0,0.0,0.0,0.0,0.0,0.0,0.0
1752616359738,145.5,-38.81,-19.69,0.0,0.0,9.81,1.0,0.0,0.0,0.0,0.0,0.0,0.0
1752616359860,137.56,-23.31,-12.94,0.0,0.0,9.81,1.0,0.0,0.0,0.0,0.0,0.0,0.0
1752616359991,132.5,-13.44,-13.81,0.0,0.0,9.81,1.0,0.0,0.0,0.0,0.0,0.0,0.0
1752616360202,131.19,-8.94,-23.19,0.0,0.0,9.81,1.0,0.0,0.0,0.0,0.0,0.0,0.0
1752616360331,131.13,-17.13,-30.44,0.0,0.0,9.81,1.0,0.0,0.0,0.0,0.0,0.0,0.0
1752616360442,130.69,-24.25,-29.25,0.0,0.0,9.81,1.0,0.0,0.0,0.0,0.0,0.0,0.0
1752616360574,130.63,-28.0,-25.5,0.0,0.0,9.81,1.0,0.0,0.0,0.0,0.0,0.0,0.0
1752616360693,134.81,-33.75,-20.56,0.0,0.0,9.81,1.0,0.0,0.0,0.0,0.0,0.0,0.0
1752616360814,140.63,-35.88,-16.31,0.0,0.0,9.81,1.0,0.0,0.0,0.0,0.0,0.0,0.0
1752616360938,141.44,-33.69,-24.69,0.0,0.0,9.81,1.0,0.0,0.0,0.0,0.0,0.0,0.0
1752616361059,145.81,-31.81,-20.13,0.0,0.0,9.81,1.0,0.0,0.0,0.0,0.0,0.0,0.0
1752616361180,115.13,-31.25,23.69,0.0,0.0,9.81,1.0,0.0,0.0,0.0,0.0,0.0,0.0
1752616361303,90.0,-24.81,52.88,0.0,0.0,9.81,1.0,0.0,0.0,0.0,0.0,0.0,0.0
1752616361425,114.69,-28.56,26.13,0.0,0.0,9.81,1.0,0.0,0.0,0.0,0.0,0.0,0.0
1752616361550,147.38,-51.81,-40.5,0.0,0.0,9.81,1.0,0.0,0.0,0.0,0.0,0.0,0.0
1752616361679,223.25,-78.13,171.81,0.0,0.0,9.81,1.0,0.0,0.0,0.0,0.0,0.0,0.0
1752616361799,295.44,-41.88,119.56,0.0,0.0,9.81,1.0,0.0,0.0,0.0,0.0,0.0,0.0
1752616361920,183.94,-20.69,148.88,0.0,0.0,9.81,1.0,0.0,0.0,0.0,0.0,0.0,0.0
1752616362037,170.75,-2.69,166.75,0.0,0.0,9.81,1.0,0.0,0.0,0.0,0.0,0.0,0.0
1752616362163,157.69,-8.69,-170.25,0.0,0.0,9.81,1.0,0.0,0.0,0.0,0.0,0.0,0.0
1752616362285,49.94,-45.69,-127.69,0.0,0.0,9.81,1.0,0.0,0.0,0.0,0.0,0.0,0.0
1752616362399,56.19,-75.81,41.5,0.0,0.0,9.81,1.0,0.0,0.0,0.0,0.0,0.0,0.0
1752616362528,59.81,-32.13,104.31,0.0,0.0,9.81,1.0,0.0,0.0,0.0,0.0,0.0,0.0
1752616362751,67.56,-36.63,72.25,0.0,0.0,9.81,1.0,0.0,0.0,0.0,0.0,0.0,0.0
1752616362882,92.13,-66.5,-50.0,0.0,0.0,9.81,1.0,0.0,0.0,0.0,0.0,0.0,0.0
1752616363109,139.94,-32.56,151.31,0.0,0.0,9.81,1.0,0.0,0.0,0.0,0.0,0.0,0.0
1752616363211,212.94,-30.44,143.31,0.0,0.0,9.81,1.0,0.0,0.0,0.0,0.0,0.0,0.0
1752616363347,178.5,-47.75,119.13,0.0,0.0,9.81,1.0,0.0,0.0,0.0,0.0,0.0,0.0
1752616363471,153.13,-42.13,82.25,0.0,0.0,9.81,1.0,0.0,0.0,0.0,0.0,0.0,0.0
1752616363587,107.88,-35.5,111.81,0.0,0.0,9.81,1.0,0.0,0.0,0.0,0.0,0.0,0.0
1752616363816,104.25,-86.44,176.69,0.0,0.0,9.81,1.0,0.0,0.0,0.0,0.0,0.0,0.0
1752616363934,170.75,-68.69,145.31,0.0,0.0,9.81,1.0,0.0,0.0,0.0,0.0,0.0,0.0
1752616364059,236.94,-61.25,106.31,0.0,0.0,9.81,1.0,0.0,0.0,0.0,0.0,0.0,0.0
1752616364173,250.75,-57.81,95.0,0.0,0.0,9.81,1.0,0.0,0.0,0.0,0.0,0.0,0.0
1752616364302,181.81,-68.44,122.56,0.0,0.0,9.81,1.0,0.0,0.0,0.0,0.0,0.0,0.0
1752616364413,98.81,-83.63,-174.13,0.0,0.0,9.81,1.0,0.0,0.0,0.0,0.0,0.0,0.0
1752616364543,80.0,-36.31,-126.88,0.0,0.0,9.81,1.0,0.0,0.0,0.0,0.0,0.0,0.0
1752616364667,51.88,-19.44,-130.31,0.0,0.0,9.81,1.0,0.0,0.0,0.0,0.0,0.0,0.0
1752616364785,40.75,-14.75,-126.88,0.0,0.0,9.81,1.0,0.0,0.0,0.0,0.0,0.0,0.0
1752616364908,40.69,-18.31,-117.88,0.0,0.0,9.81,1.0,0.0,0.0,0.0,0.0,0.0,0.0
1752616365043,61.75,-43.56,-91.81,0.0,0.0,9.81,1.0,0.0,0.0,0.0,0.0,0.0,0.0
1752616365254,114.38,-78.81,22.75,0.0,0.0,9.81,1.0,0.0,0.0,0.0,0.0,0.0,0.0
1752616365378,145.19,-42.75,70.81,0.0,0.0,9.81,1.0,0.0,0.0,0.0,0.0,0.0,0.0
1752616365503,154.69,-27.81,78.13,0.0,0.0,9.81,1.0,0.0,0.0,0.0,0.0,0.0,0.0
1752616365621,159.44,-22.5,84.13,0.0,0.0,9.81,1.0,0.0,0.0,0.0,0.0,0.0,0.0
1752616365741,146.13,-27.69,97.69,0.0,0.0,9.81,1.0,0.0,0.0,0.0,0.0,0.0,0.0
1752616365964,173.5,-67.19,91.0,0.0,0.0,9.81,1.0,0.0,0.0,0.0,0.0,0.0,0.0
1752616366098,177.81,-41.56,72.5,0.0,0.0,9.81,1.0,0.0,0.0,0.0,0.0,0.0,0.0
1752616366223,143.31,-44.0,100.25,0.0,0.0,9.81,1.0,0.0,0.0,0.0,0.0,0.0,0.0
1752616366334,87.44,-57.38,145.94,0.0,0.0,9.81,1.0,0.0,0.0,0.0,0.0,0.0,0.0
1752616366460,109.31,-58.69,138.06,0.0,0.0,9.81,1.0,0.0,0.0,0.0,0.0,0.0,0.0
1752616366585,213.19,-57.5,61.81,0.0,0.0,9.81,1.0,0.0,0.0,0.0,0.0,0.0,0.0
1752616366703,221.69,-58.31,61.06,0.0,0.0,9.81,1.0,0.0,0.0,0.0,0.0,0.0,0.0
1752616366822,135.44,-57.31,130.5,0.0,0.0,9.81,1.0,0.0,0.0,0.0,0.0,0.0,0.0
1752616366948,61.94,-60.75,172.19,0.0,0.0,9.81,1.0,0.0,0.0,0.0,0.0,0.0,0.0
1752616367078,111.75,-61.06,141.0,0.0,0.0,9.81,1.0,0.0,0.0,0.0,0.0,0.0,0.0
1752616367199,210.63,-60.94,76.88,0.0,0.0,9.81,1.0,0.0,0.0,0.0,0.0,0.0,0.0
1752616367321,215.63,-59.38,103.63,0.0,0.0,9.81,1.0,0.0,0.0,0.0,0.0,0.0,0.0
1752616367442,175.88,-62.94,145.88,0.0,0.0,9.81,1.0,0.0,0.0,0.0,0.0,0.0,0.0
1752616367554,101.75,-43.69,-156.0,0.0,0.0,9.81,1.0,0.0,0.0,0.0,0.0,0.0,0.0
1752616367681,351.19,-10.44,-132.88,0.0,0.0,9.81,1.0,0.0,0.0,0.0,0.0,0.0,0.0
1752616367805,313.38,1.31,-109.5,0.0,0.0,9.81,1.0,0.0,0.0,0.0,0.0,0.0,0.0
1752616367928,300.25,4.06,-93.44,0.0,0.0,9.81,1.0,0.0,0.0,0.0,0.0,0.0,0.0
1752616368051,286.63,17.94,-93.56,0.0,0.0,9.81,1.0,0.0,0.0,0.0,0.0,0.0,0.0
1752616368169,294.31,43.44,-77.5,0.0,0.0,9.81,1.0,0.0,0.0,0.0,0.0,0.0,0.0
1752616368294,324.56,51.88,-91.56,0.0,0.0,9.81,1.0,0.0,0.0,0.0,0.0,0.0,0.0
1752616368412,40.13,27.0,-100.31,0.0,0.0,9.81,1.0,0.0,0.0,0.0,0.0,0.0,0.0
1752616368535,125.25,-4.19,-82.13,0.0,0.0,9.81,1.0,0.0,0.0,0.0,0.0,0.0,0.0
1752616368660,135.38,-14.38,-70.38,0.0,0.0,9.81,1.0,0.0,0.0,0.0,0.0,0.0,0.0
1752616368778,58.56,14.56,-93.06,0.0,0.0,9.81,1.0,0.0,0.0,0.0,0.0,0.0,0.0
1752616368904,295.75,33.63,-91.88,0.0,0.0,9.81,1.0,0.0,0.0,0.0,0.0,0.0,0.0
1752616369031,280.44,19.94,-84.81,0.0,0.0,9.81,1.0,0.0,0.0,0.0,0.0,0.0,0.0
1752616369149,269.69,6.75,-87.19,0.0,0.0,9.81,1.0,0.0,0.0,0.0,0.0,0.0,0.0
1752616369272,253.56,5.25,-104.63,0.0,0.0,9.81,1.0,0.0,0.0,0.0,0.0,0.0,0.0
1752616369392,253.25,20.69,-103.81,0.0,0.0,9.81,1.0,0.0,0.0,0.0,0.0,0.0,0.0
1752616369510,322.31,32.75,-85.5,0.0,0.0,9.81,1.0,0.0,0.0,0.0,0.0,0.0,0.0
1752616369635,67.81,19.19,-63.13,0.0,0.0,9.81,1.0,0.0,0.0,0.0,0.0,0.0,0.0
1752616369755,124.5,-13.38,-62.69,0.0,0.0,9.81,1.0,0.0,0.0,0.0,0.0,0.0,0.0
1752616369876,124.56,-17.5,-66.75,0.0,0.0,9.81,1.0,0.0,0.0,0.0,0.0,0.0,0.0
1752616370008,31.63,13.25,-83.81,0.0,0.0,9.81,1.0,0.0,0.0,0.0,0.0,0.0,0.0
1752616370125,290.06,28.81,-70.38,0.0,0.0,9.81,1.0,0.0,0.0,0.0,0.0,0.0,0.0
1752616370247,257.81,19.06,-77.5,0.0,0.0,9.81,1.0,0.0,0.0,0.0,0.0,0.0,0.0
1752616370367,254.44,11.31,-89.38,0.0,0.0,9.81,1.0,0.0,0.0,0.0,0.0,0.0,0.0
1752616370489,243.88,12.25,-82.13,0.0,0.0,9.81,1.0,0.0,0.0,0.0,0.0,0.0,0.0
1752616370610,251.63,20.88,-72.81,0.0,0.0,9.81,1.0,0.0,0.0,0.0,0.0,0.0,0.0
1752616370732,283.13,35.75,-79.06,0.0,0.0,9.81,1.0,0.0,0.0,0.0,0.0,0.0,0.0
1752616370858,352.69,19.81,-96.69,0.0,0.0,9.81,1.0,0.0,0.0,0.0,0.0,0.0,0.0
1752616370980,96.5,-38.94,-96.56,0.0,0.0,9.81,1.0,0.0,0.0,0.0,0.0,0.0,0.0
1752616371112,137.63,-50.19,-37.81,0.0,0.0,9.81,1.0,0.0,0.0,0.0,0.0,0.0,0.0
1752616371226,124.69,-44.75,-49.5,0.0,0.0,9.81,1.0,0.0,0.0,0.0,0.0,0.0,0.0
1752616371353,350.44,23.88,-107.81,0.0,0.0,9.81,1.0,0.0,0.0,0.0,0.0,0.0,0.0
1752616371477,263.31,43.31,-74.81,0.0,0.0,9.81,1.0,0.0,0.0,0.0,0.0,0.0,0.0
1752616371601,254.25,29.94,-82.88,0.0,0.0,9.81,1.0,0.0,0.0,0.0,0.0,0.0,0.0
1752616371830,250.44,26.56,-76.13,0.0,0.0,9.81,1.0,0.0,0.0,0.0,0.0,0.0,0.0
1752616371952,262.69,39.94,-71.13,0.0,0.0,9.81,1.0,0.0,0.0,0.0,0.0,0.0,0.0
1752616372171,34.81,8.06,-90.81,0.0,0.0,9.81,1.0,0.0,0.0,0.0,0.0,0.0,0.0
1752616372294,69.0,-5.44,-90.0,0.0,0.0,9.81,1.0,0.0,0.0,0.0,0.0,0.0,0.0
1752616372411,56.88,-0.63,-88.75,0.0,0.0,9.81,1.0,0.0,0.0,0.0,0.0,0.0,0.0
1752616372531,353.94,28.81,-92.38,0.0,0.0,9.81,1.0,0.0,0.0,0.0,0.0,0.0,0.0
1752616372654,290.56,45.06,-75.56,0.0,0.0,9.81,1.0,0.0,0.0,0.0,0.0,0.0,0.0
1752616372778,279.94,39.0,-74.0,0.0,0.0,9.81,1.0,0.0,0.0,0.0,0.0,0.0,0.0
1752616373011,270.13,38.63,-71.56,0.0,0.0,9.81,1.0,0.0,0.0,0.0,0.0,0.0,0.0
1752616373124,272.75,43.75,-77.0,0.0,0.0,9.81,1.0,0.0,0.0,0.0,0.0,0.0,0.0
1752616373242,298.94,45.0,-87.13,0.0,0.0,9.81,1.0,0.0,0.0,0.0,0.0,0.0,0.0
1752616373375,15.75,20.81,-95.44,0.0,0.0,9.81,1.0,0.0,0.0,0.0,0.0,0.0,0.0
1752616373593,37.69,15.38,-101.38,0.0,0.0,9.81,1.0,0.0,0.0,0.0,0.0,0.0,0.0
1752616373713,350.25,28.88,-111.5,0.0,0.0,9.81,1.0,0.0,0.0,0.0,0.0,0.0,0.0
1752616373831,298.69,39.94,-69.69,0.0,0.0,9.81,1.0,0.0,0.0,0.0,0.0,0.0,0.0
1752616373957,291.0,39.13,-69.94,0.0,0.0,9.81,1.0,0.0,0.0,0.0,0.0,0.0,0.0
1752616374074,300.38,38.25,-74.56,0.0,0.0,9.81,1.0,0.0,0.0,0.0,0.0,0.0,0.0
1752616374210,297.31,38.5,-76.0,0.0,0.0,9.81,1.0,0.0,0.0,0.0,0.0,0.0,0.0
1752616374323,298.69,38.94,-83.25,0.0,0.0,9.81,1.0,0.0,0.0,0.0,0.0,0.0,0.0
1752616374448,312.69,34.75,-93.0,0.0,0.0,9.81,1.0,0.0,0.0,0.0,0.0,0.0,0.0
1752616374571,322.5,28.19,-100.81,0.0,0.0,9.81,1.0,0.0,0.0,0.0,0.0,0.0,0.0
1752616374891,314.94,36.5,-88.88,0.0,0.0,9.81,1.0,0.0,0.0,0.0,0.0,0.0,0.0
1752616375013,311.56,36.56,-88.94,0.0,0.0,9.81,1.0,0.0,0.0,0.0,0.0,0.0,0.0
1752616375133,311.06,26.19,-104.06,0.0,0.0,9.81,1.0,0.0,0.0,0.0,0.0,0.0,0.0
1752616375261,331.69,10.31,-121.75,0.0,0.0,9.81,1.0,0.0,0.0,0.0,0.0,0.0,0.0
1752616375378,358.38,1.13,-132.0,0.0,0.0,9.81,1.0,0.0,0.0,0.0,0.0,0.0,0.0
1752616375499,34.5,-12.56,-128.56,0.0,0.0,9.81,1.0,0.0,0.0,0.0,0.0,0.0,0.0
1752616375626,50.81,-20.69,-120.63,0.0,0.0,9.81,1.0,0.0,0.0,0.0,0.0,0.0,0.0
1752616375752,38.56,-12.5,-117.81,0.0,0.0,9.81,1.0,0.0,0.0,0.0,0.0,0.0,0.0
1752616375871,2.5,2.88,-117.5,0.0,0.0,9.81,1.0,0.0,0.0,0.0,0.0,0.0,0.0
1752616376092,356.69,9.5,-99.38,0.0,0.0,9.81,1.0,0.0,0.0,0.0,0.0,0.0,0.0
1752616376221,331.5,34.0,-89.06,0.0,0.0,9.81,1.0,0.0,0.0,0.0,0.0,0.0,0.0
1752616376342,321.88,46.69,-75.44,0.0,0.0,9.81,1.0,0.0,0.0,0.0,0.0,0.0,0.0
1752616376578,315.19,48.44,-75.06,0.0,0.0,9.81,1.0,0.0,0.0,0.0,0.0,0.0,0.0
1752616376694,313.44,52.81,-69.25,0.0,0.0,9.81,1.0,0.0,0.0,0.0,0.0,0.0,0.0
1752616376824,320.0,50.88,-70.69,0.0,0.0,9.81,1.0,0.0,0.0,0.0,0.0,0.0,0.0
1752616376935,327.44,42.19,-79.25,0.0,0.0,9.81,1.0,0.0,0.0,0.0,0.0,0.0,0.0
1752616377055,328.56,37.69,-82.88,0.0,0.0,9.81,1.0,0.0,0.0,0.0,0.0,0.0,0.0
1752616377184,332.88,38.88,-81.94,0.0,0.0,9.81,1.0,0.0,0.0,0.0,0.0,0.0,0.0
1752616377304,334.13,42.94,-79.63,0.0,0.0,9.81,1.0,0.0,0.0,0.0,0.0,0.0,0.0
1752616377424,332.13,47.31,-73.19,0.0,0.0,9.81,1.0,0.0,0.0,0.0,0.0,0.0,0.0
1752616377547,334.56,49.75,-67.0,0.0,0.0,9.81,1.0,0.0,0.0,0.0,0.0,0.0,0.0
1752616377683,331.69,51.25,-62.38,0.0,0.0,9.81,1.0,0.0,0.0,0.0,0.0,0.0,0.0
1752616377807,330.0,50.5,-63.25,0.0,0.0,9.81,1.0,0.0,0.0,0.0,0.0,0.0,0.0
1752616377926,327.44,49.69,-69.94,0.0,0.0,9.81,1.0,0.0,0.0,0.0,0.0,0.0,0.0
1752616378040,326.5,48.25,-76.25,0.0,0.0,9.81,1.0,0.0,0.0,0.0,0.0,0.0,0.0
1752616378159,325.06,43.56,-82.31,0.0,0.0,9.81,1.0,0.0,0.0,0.0,0.0,0.0,0.0
1752616378284,328.06,40.88,-87.13,0.0,0.0,9.81,1.0,0.0,0.0,0.0,0.0,0.0,0.0
1752616378506,322.63,48.56,-74.06,0.0,0.0,9.81,1.0,0.0,0.0,0.0,0.0,0.0,0.0
1752616378641,316.94,52.44,-73.0,0.0,0.0,9.81,1.0,0.0,0.0,0.0,0.0,0.0,0.0
1752616378757,314.56,53.88,-74.44,0.0,0.0,9.81,1.0,0.0,0.0,0.0,0.0,0.0,0.0
1752616378881,307.19,55.38,-83.25,0.0,0.0,9.81,1.0,0.0,0.0,0.0,0.0,0.0,0.0
1752616379002,307.63,51.81,-82.5,0.0,0.0,9.81,1.0,0.0,0.0,0.0,0.0,0.0,0.0
1752616379123,307.13,50.31,-82.5,0.0,0.0,9.81,1.0,0.0,0.0,0.0,0.0,0.0,0.0
1752616379244,304.88,50.06,-81.81,0.0,0.0,9.81,1.0,0.0,0.0,0.0,0.0,0.0,0.0
1752616379365,301.5,51.0,-77.06,0.0,0.0,9.81,1.0,0.0,0.0,0.0,0.0,0.0,0.0
1752616379501,301.69,49.13,-70.63,0.0,0.0,9.81,1.0,0.0,0.0,0.0,0.0,0.0,0.0
1752616379714,302.13,52.94,-59.38,0.0,0.0,9.81,1.0,0.0,0.0,0.0,0.0,0.0,0.0
1752616379842,304.25,54.69,-59.81,0.0,0.0,9.81,1.0,0.0,0.0,0.0,0.0,0.0,0.0
1752616380061,309.19,57.88,-70.94,0.0,0.0,9.81,1.0,0.0,0.0,0.0,0.0,0.0,0.0
1752616380185,309.25,52.75,-90.88,0.0,0.0,9.81,1.0,0.0,0.0,0.0,0.0,0.0,0.0
1752616380307,312.25,45.38,-107.13,0.0,0.0,9.81,1.0,0.0,0.0,0.0,0.0,0.0,0.0
1752616380440,310.31,42.94,-108.25,0.0,0.0,9.81,1.0,0.0,0.0,0.0,0.0,0.0,0.0
1752616380560,307.56,43.63,-109.5,0.0,0.0,9.81,1.0,0.0,0.0,0.0,0.0,0.0,0.0
1752616380694,306.31,40.31,-114.13,0.0,0.0,9.81,1.0,0.0,0.0,0.0,0.0,0.0,0.0
1752616380812,302.69,40.5,-111.81,0.0,0.0,9.81,1.0,0.0,0.0,0.0,0.0,0.0,0.0
1752616380938,295.38,46.0,-102.38,0.0,0.0,9.81,1.0,0.0,0.0,0.0,0.0,0.0,0.0
1752616381056,285.38,49.88,-95.38,0.0,0.0,9.81,1.0,0.0,0.0,0.0,0.0,0.0,0.0
1752616381182,289.81,45.31,-81.44,0.0,0.0,9.81,1.0,0.0,0.0,0.0,0.0,0.0,0.0
1752616381298,304.69,38.38,-78.44,0.0,0.0,9.81,1.0,0.0,0.0,0.0,0.0,0.0,0.0
1752616381418,336.44,23.69,-94.06,0.0,0.0,9.81,1.0,0.0,0.0,0.0,0.0,0.0,0.0
1752616381539,18.06,7.63,-94.31,0.0,0.0,9.81,1.0,0.0,0.0,0.0,0.0,0.0,0.0
1752616381662,41.25,2.75,-98.56,0.0,0.0,9.81,1.0,0.0,0.0,0.0,0.0,0.0,0.0
1752616381798,66.94,5.31,-106.0,0.0,0.0,9.81,1.0,0.0,0.0,0.0,0.0,0.0,0.0
1752616381914,69.38,6.63,-101.75,0.0,0.0,9.81,1.0,0.0,0.0,0.0,0.0,0.0,0.0
1752616382035,31.94,13.19,-101.44,0.0,0.0,9.81,1.0,0.0,0.0,0.0,0.0,0.0,0.0
1752616382149,359.38,20.94,-99.06,0.0,0.0,9.81,1.0,0.0,0.0,0.0,0.0,0.0,0.0
1752616382270,338.88,34.31,-77.25,0.0,0.0,9.81,1.0,0.0,0.0,0.0,0.0,0.0,0.0
1752616382401,323.19,39.44,-79.44,0.0,0.0,9.81,1.0,0.0,0.0,0.0,0.0,0.0,0.0
1752616382524,311.38,44.56,-78.19,0.0,0.0,9.81,1.0,0.0,0.0,0.0,0.0,0.0,0.0
1752616382642,306.38,49.69,-70.63,0.0,0.0,9.81,1.0,0.0,0.0,0.0,0.0,0.0,0.0
1752616382773,305.63,54.06,-77.81,0.0,0.0,9.81,1.0,0.0,0.0,0.0,0.0,0.0,0.0
1752616382896,316.44,53.25,-86.0,0.0,0.0,9.81,1.0,0.0,0.0,0.0,0.0,0.0,0.0
1752616383021,335.75,46.13,-84.81,0.0,0.0,9.81,1.0,0.0,0.0,0.0,0.0,0.0,0.0
1752616383342,344.75,36.94,-86.69,0.0,0.0,9.81,1.0,0.0,0.0,0.0,0.0,0.0,0.0
1752616383463,339.63,42.63,-81.25,0.0,0.0,9.81,1.0,0.0,0.0,0.0,0.0,0.0,0.0
1752616383689,332.88,45.44,-77.81,0.0,0.0,9.81,1.0,0.0,0.0,0.0,0.0,0.0,0.0
1752616383816,330.19,47.44,-77.25,0.0,0.0,9.81,1.0,0.0,0.0,0.0,0.0,0.0,0.0
1752616383941,331.94,44.56,-84.25,0.0,0.0,9.81,1.0,0.0,0.0,0.0,0.0,0.0,0.0
1752616384060,332.38,42.63,-88.44,0.0,0.0,9.81,1.0,0.0,0.0,0.0,0.0,0.0,0.0
1752616384188,334.63,41.44,-87.63,0.0,0.0,9.81,1.0,0.0,0.0,0.0,0.0,0.0,0.0
1752616384417,335.63,44.69,-83.56,0.0,0.0,9.81,1.0,0.0,0.0,0.0,0.0,0.0,0.0
1752616384535,336.75,44.88,-83.25,0.0,0.0,9.81,1.0,0.0,0.0,0.0,0.0,0.0,0.0
1752616384662,338.81,43.38,-85.75,0.0,0.0,9.81,1.0,0.0,0.0,0.0,0.0,0.0,0.0
1752616384790,340.94,41.13,-87.81,0.0,0.0,9.81,1.0,0.0,0.0,0.0,0.0,0.0,0.0
1752616384912,340.81,39.63,-87.5,0.0,0.0,9.81,1.0,0.0,0.0,0.0,0.0,0.0,0.0
1752616385032,337.69,41.06,-85.38,0.0,0.0,9.81,1.0,0.0,0.0,0.0,0.0,0.0,0.0
1752616385170,332.19,45.0,-80.25,0.0,0.0,9.81,1.0,0.0,0.0,0.0,0.0,0.0,0.0
1752616385282,330.5,45.81,-81.0,0.0,0.0,9.81,1.0,0.0,0.0,0.0,0.0,0.0,0.0
1752616385413,331.38,44.63,-83.44,0.0,0.0,9.81,1.0,0.0,0.0,0.0,0.0,0.0,0.0
1752616385737,340.75,35.56,-94.81,0.0,0.0,9.81,1.0,0.0,0.0,0.0,0.0,0.0,0.0
1752616385862,340.75,36.69,-94.0,0.0,0.0,9.81,1.0,0.0,0.0,0.0,0.0,0.0,0.0
1752616385982,340.25,37.94,-91.56,0.0,0.0,9.81,1.0,0.0,0.0,0.0,0.0,0.0,0.0
1752616386111,337.63,40.25,-87.25,0.0,0.0,9.81,1.0,0.0,0.0,0.0,0.0,0.0,0.0
1752616386232,332.88,43.19,-83.69,0.0,0.0,9.81,1.0,0.0,0.0,0.0,0.0,0.0,0.0
1752616386359,335.13,41.0,-83.19,0.0,0.0,9.81,1.0,0.0,0.0,0.0,0.0,0.0,0.0
1752616386481,336.81,38.75,-84.25,0.0,0.0,9.81,1.0,0.0,0.0,0.0,0.0,0.0,0.0
1752616386600,340.88,36.31,-85.81,0.0,0.0,9.81,1.0,0.0,0.0,0.0,0.0,0.0,0.0
1752616386721,341.88,36.63,-86.81,0.0,0.0,9.81,1.0,0.0,0.0,0.0,0.0,0.0,0.0
1752616386837,348.0,32.63,-93.69,0.0,0.0,9.81,1.0,0.0,0.0,0.0,0.0,0.0,0.0
1752616386973,355.25,31.0,-96.75,0.0,0.0,9.81,1.0,0.0,0.0,0.0,0.0,0.0,0.0
1752616387096,351.0,30.69,-84.19,0.0,0.0,9.81,1.0,0.0,0.0,0.0,0.0,0.0,0.0
1752616387218,338.56,37.88,-79.94,0.0,0.0,9.81,1.0,0.0,0.0,0.0,0.0,0.0,0.0
1752616387331,339.25,39.56,-79.13,0.0,0.0,9.81,1.0,0.0,0.0,0.0,0.0,0.0,0.0
1752616387559,332.31,45.88,-76.0,0.0,0.0,9.81,1.0,0.0,0.0,0.0,0.0,0.0,0.0
1752616387682,334.94,47.63,-75.88,0.0,0.0,9.81,1.0,0.0,0.0,0.0,0.0,0.0,0.0
1752616387804,332.63,48.88,-78.44,0.0,0.0,9.81,1.0,0.0,0.0,0.0,0.0,0.0,0.0
1752616387923,337.38,46.13,-85.5,0.0,0.0,9.81,1.0,0.0,0.0,0.0,0.0,0.0,0.0
1752616388044,350.44,41.81,-86.44,0.0,0.0,9.81,1.0,0.0,0.0,0.0,0.0,0.0,0.0
1752616388179,0.81,36.38,-84.63,0.0,0.0,9.81,1.0,0.0,0.0,0.0,0.0,0.0,0.0
1752616388289,7.56,36.5,-81.81,0.0,0.0,9.81,1.0,0.0,0.0,0.0,0.0,0.0,0.0
1752616388519,4.63,39.38,-85.63,0.0,0.0,9.81,1.0,0.0,0.0,0.0,0.0,0.0,0.0
1752616388653,0.0,41.38,-85.44,0.0,0.0,9.81,1.0,0.0,0.0,0.0,0.0,0.0,0.0
1752616388872,354.69,43.31,-87.69,0.0,0.0,9.81,1.0,0.0,0.0,0.0,0.0,0.0,0.0
1752616388985,350.06,44.06,-89.94,0.0,0.0,9.81,1.0,0.0,0.0,0.0,0.0,0.0,0.0
1752616389119,346.31,45.19,-89.88,0.0,0.0,9.81,1.0,0.0,0.0,0.0,0.0,0.0,0.0
1752616389235,345.13,45.13,-91.19,0.0,0.0,9.81,1.0,0.0,0.0,0.0,0.0,0.0,0.0
1752616389370,342.63,45.5,-92.5,0.0,0.0,9.81,1.0,0.0,0.0,0.0,0.0,0.0,0.0
1752616389490,340.75,45.13,-92.81,0.0,0.0,9.81,1.0,0.0,0.0,0.0,0.0,0.0,0.0
1752616389607,332.56,48.44,-91.5,0.0,0.0,9.81,1.0,0.0,0.0,0.0,0.0,0.0,0.0
1752616389736,323.06,49.94,-94.94,0.0,0.0,9.81,1.0,0.0,0.0,0.0,0.0,0.0,0.0
1752616389853,327.5,48.81,-92.69,0.0,0.0,9.81,1.0,0.0,0.0,0.0,0.0,0.0,0.0
1752616389977,327.19,49.44,-93.06,0.0,0.0,9.81,1.0,0.0,0.0,0.0,0.0,0.0,0.0
1752616390190,326.25,49.38,-93.0,0.0,0.0,9.81,1.0,0.0,0.0,0.0,0.0,0.0,0.0
1752616390319,330.38,47.31,-94.31,0.0,0.0,9.81,1.0,0.0,0.0,0.0,0.0,0.0,0.0
1752616390546,330.19,44.44,-91.69,0.0,0.0,9.81,1.0,0.0,0.0,0.0,0.0,0.0,0.0
1752616390670,329.56,44.13,-91.63,0.0,0.0,9.81,1.0,0.0,0.0,0.0,0.0,0.0,0.0
1752616390789,329.31,44.56,-92.69,0.0,0.0,9.81,1.0,0.0,0.0,0.0,0.0,0.0,0.0
1752616390919,330.13,44.5,-94.5,0.0,0.0,9.81,1.0,0.0,0.0,0.0,0.0,0.0,0.0
1752616391037,333.88,43.5,-92.38,0.0,0.0,9.81,1.0,0.0,0.0,0.0,0.0,0.0,0.0
1752616391163,334.81,43.94,-90.19,0.0,0.0,9.81,1.0,0.0,0.0,0.0,0.0,0.0,0.0
1752616391281,339.63,44.19,-86.94,0.0,0.0,9.81,1.0,0.0,0.0,0.0,0.0,0.0,0.0
1752616391404,342.44,41.13,-89.0,0.0,0.0,9.81,1.0,0.0,0.0,0.0,0.0,0.0,0.0
1752616391533,344.69,38.75,-89.0,0.0,0.0,9.81,1.0,0.0,0.0,0.0,0.0,0.0,0.0
1752616391650,347.56,36.94,-90.81,0.0,0.0,9.81,1.0,0.0,0.0,0.0,0.0,0.0,0.0
1752616391777,339.44,37.69,-95.69,0.0,0.0,9.81,1.0,0.0,0.0,0.0,0.0,0.0,0.0
1752616391997,338.88,42.06,-88.06,0.0,0.0,9.81,1.0,0.0,0.0,0.0,0.0,0.0,0.0
1752616392121,334.19,36.94,-92.75,0.0,0.0,9.81,1.0,0.0,0.0,0.0,0.0,0.0,0.0
1752616392247,330.63,38.06,-93.06,0.0,0.0,9.81,1.0,0.0,0.0,0.0,0.0,0.0,0.0
1752616392365,341.63,36.25,-90.88,0.0,0.0,9.81,1.0,0.0,0.0,0.0,0.0,0.0,0.0
1752616392484,338.56,40.5,-89.19,0.0,0.0,9.81,1.0,0.0,0.0,0.0,0.0,0.0,0.0
1752616392615,339.06,42.75,-90.19,0.0,0.0,9.81,1.0,0.0,0.0,0.0,0.0,0.0,0.0
1752616393041,341.13,45.5,-88.94,0.0,0.0,9.81,1.0,0.0,0.0,0.0,0.0,0.0,0.0
1752616393157,340.13,45.88,-87.63,0.0,0.0,9.81,1.0,0.0,0.0,0.0,0.0,0.0,0.0
1752616393294,342.56,46.63,-89.56,0.0,0.0,9.81,1.0,0.0,0.0,0.0,0.0,0.0,0.0
1752616393400,343.81,48.25,-88.13,0.0,0.0,9.81,1.0,0.0,0.0,0.0,0.0,0.0,0.0
1752616393533,344.06,48.88,-85.06,0.0,0.0,9.81,1.0,0.0,0.0,0.0,0.0,0.0,0.0
1752616393755,15.06,40.13,-62.88,0.0,0.0,9.81,1.0,0.0,0.0,0.0,0.0,0.0,0.0
1752616394079,9.69,61.56,-44.63,0.0,0.0,9.81,1.0,0.0,0.0,0.0,0.0,0.0,0.0
1752616394296,349.13,53.38,-76.25,0.0,0.0,9.81,1.0,0.0,0.0,0.0,0.0,0.0,0.0
1752616394424,351.56,47.38,-78.31,0.0,0.0,9.81,1.0,0.0,0.0,0.0,0.0,0.0,0.0
1752616394550,0.38,33.13,-93.56,0.0,0.0,9.81,1.0,0.0,0.0,0.0,0.0,0.0,0.0
1752616394671,29.69,3.63,-113.75,0.0,0.0,9.81,1.0,0.0,0.0,0.0,0.0,0.0,0.0
1752616394787,68.19,-17.13,-116.19,0.0,0.0,9.81,1.0,0.0,0.0,0.0,0.0,0.0,0.0
1752616394907,77.06,-27.31,-114.38,0.0,0.0,9.81,1.0,0.0,0.0,0.0,0.0,0.0,0.0
1752616395033,71.5,-23.94,-116.75,0.0,0.0,9.81,1.0,0.0,0.0,0.0,0.0,0.0,0.0
1752616395153,73.19,-23.63,-116.13,0.0,0.0,9.81,1.0,0.0,0.0,0.0,0.0,0.0,0.0
1752616395274,74.63,-23.63,-119.13,0.0,0.0,9.81,1.0,0.0,0.0,0.0,0.0,0.0,0.0
1752616395393,76.94,-23.25,-125.5,0.0,0.0,9.81,1.0,0.0,0.0,0.0,0.0,0.0,0.0
1752616395517,72.0,-18.69,-124.5,0.0,0.0,9.81,1.0,0.0,0.0,0.0,0.0,0.0,0.0
1752616395646,74.94,-19.38,-123.5,0.0,0.0,9.81,1.0,0.0,0.0,0.0,0.0,0.0,0.0
1752616395761,67.75,-15.56,-114.63,0.0,0.0,9.81,1.0,0.0,0.0,0.0,0.0,0.0,0.0
1752616395893,70.81,-14.19,-113.88,0.0,0.0,9.81,1.0,0.0,0.0,0.0,0.0,0.0,0.0
