timestamp,quat_w,quat_x,quat_y,quat_z,acc_x,acc_y,acc_z,mag_x,mag_y,mag_z,euler_yaw,euler_pitch,euler_roll
1751943276329,1.0,0.0,0.0,0.0,0.0,0.0,9.81,0.0,0.0,0.0,0.0,0.0,0.0
1751943276531,1.0,0.0,0.0,0.0,0.0,0.0,9.81,359.94,3.5,-13.88,359.94,3.5,-13.88
1751943276647,1.0,0.0,0.0,0.0,0.0,0.0,9.81,359.06,7.81,-24.25,359.06,7.81,-24.25
1751943276748,1.0,0.0,0.0,0.0,0.0,0.0,9.81,342.06,13.06,-8.13,342.06,13.06,-8.13
1751943276864,1.0,0.0,0.0,0.0,0.0,0.0,9.81,314.63,-16.44,5.31,314.63,-16.44,5.31
1751943276965,1.0,0.0,0.0,0.0,0.0,0.0,9.81,302.69,-26.25,7.75,302.69,-26.25,7.75
1751943277067,1.0,0.0,0.0,0.0,0.0,0.0,9.81,293.13,-26.44,15.5,293.13,-26.44,15.5
1751943277186,1.0,0.0,0.0,0.0,0.0,0.0,9.81,298.56,-19.88,27.0,298.56,-19.88,27.0
1751943277289,1.0,0.0,0.0,0.0,0.0,0.0,9.81,310.31,-12.44,25.63,310.31,-12.44,25.63
1751943277392,1.0,0.0,0.0,0.0,0.0,0.0,9.81,318.63,-6.44,24.56,318.63,-6.44,24.56
1751943277497,1.0,0.0,0.0,0.0,0.0,0.0,9.81,329.56,0.19,19.56,329.56,0.19,19.56
1751943277605,1.0,0.0,0.0,0.0,0.0,0.0,9.81,338.06,4.38,15.0,338.06,4.38,15.0
1751943277708,1.0,0.0,0.0,0.0,0.0,0.0,9.81,340.56,6.38,11.88,340.56,6.38,11.88
1751943277816,1.0,0.0,0.0,0.0,0.0,0.0,9.81,337.5,7.69,11.88,337.5,7.69,11.88
1751943277925,1.0,0.0,0.0,0.0,0.0,0.0,9.81,333.13,7.81,13.94,333.13,7.81,13.94
1751943278025,1.0,0.0,0.0,0.0,0.0,0.0,9.81,327.44,3.25,13.75,327.44,3.25,13.75
1751943278142,1.0,0.0,0.0,0.0,0.0,0.0,9.81,322.19,-1.38,14.31,322.19,-1.38,14.31
1751943278242,1.0,0.0,0.0,0.0,0.0,0.0,9.81,317.06,-6.31,14.63,317.06,-6.31,14.63
1751943278358,1.0,0.0,0.0,0.0,0.0,0.0,9.81,311.75,-10.63,15.0,311.75,-10.63,15.0
1751943278459,1.0,0.0,0.0,0.0,0.0,0.0,9.81,307.75,-14.88,14.0,307.75,-14.88,14.0
1751943278559,1.0,0.0,0.0,0.0,0.0,0.0,9.81,305.75,-19.19,14.5,305.75,-19.19,14.5
1751943278676,1.0,0.0,0.0,0.0,0.0,0.0,9.81,305.81,-23.25,14.69,305.81,-23.25,14.69
1751943278776,1.0,0.0,0.0,0.0,0.0,0.0,9.81,309.44,-25.56,17.5,309.44,-25.56,17.5
1751943278994,1.0,0.0,0.0,0.0,0.0,0.0,9.81,315.63,-30.44,22.81,315.63,-30.44,22.81
1751943279094,1.0,0.0,0.0,0.0,0.0,0.0,9.81,318.31,-33.94,25.69,318.31,-33.94,25.69
1751943279211,1.0,0.0,0.0,0.0,0.0,0.0,9.81,321.0,-33.44,26.5,321.0,-33.44,26.5
1751943279312,1.0,0.0,0.0,0.0,0.0,0.0,9.81,323.63,-30.13,27.38,323.63,-30.13,27.38
1751943279412,1.0,0.0,0.0,0.0,0.0,0.0,9.81,322.44,-9.44,-6.38,322.44,-9.44,-6.38
1751943279528,1.0,0.0,0.0,0.0,0.0,0.0,9.81,324.63,-8.88,-6.56,324.63,-8.88,-6.56
1751943279628,1.0,0.0,0.0,0.0,0.0,0.0,9.81,326.5,-7.56,-6.88,326.5,-7.56,-6.88
1751943279745,1.0,0.0,0.0,0.0,0.0,0.0,9.81,327.38,-6.69,-7.88,327.38,-6.69,-7.88
1751943279845,1.0,0.0,0.0,0.0,0.0,0.0,9.81,37.75,-6.31,-8.0,37.75,-6.31,-8.0
1751943279946,1.0,0.0,0.0,0.0,0.0,0.0,9.81,39.56,-6.88,-7.88,39.56,-6.88,-7.88
1751943280048,1.0,0.0,0.0,0.0,0.0,0.0,9.81,43.44,-7.19,-6.88,43.44,-7.19,-6.88
1751943280264,1.0,0.0,0.0,0.0,0.0,0.0,9.81,46.44,-7.13,-6.5,46.44,-7.13,-6.5
1751943280381,1.0,0.0,0.0,0.0,0.0,0.0,9.81,46.88,-7.5,-6.63,46.88,-7.5,-6.63
1751943280481,1.0,0.0,0.0,0.0,0.0,0.0,9.81,47.44,-8.0,-6.44,47.44,-8.0,-6.44
1751943280598,1.0,0.0,0.0,0.0,0.0,0.0,9.81,47.88,-7.69,-6.0,47.88,-7.69,-6.0
1751943280698,1.0,0.0,0.0,0.0,0.0,0.0,9.81,47.69,-8.25,-5.81,47.69,-8.25,-5.81
1751943280815,1.0,0.0,0.0,0.0,0.0,0.0,9.81,47.06,-8.0,-5.31,47.06,-8.0,-5.31
1751943280915,1.0,0.0,0.0,0.0,0.0,0.0,9.81,46.44,-7.88,-5.0,46.44,-7.88,-5.0
1751943281016,1.0,0.0,0.0,0.0,0.0,0.0,9.81,45.5,-7.38,-4.56,45.5,-7.38,-4.56
1751943281118,1.0,0.0,0.0,0.0,0.0,0.0,9.81,43.88,-7.25,-4.13,43.88,-7.25,-4.13
1751943281239,1.0,0.0,0.0,0.0,0.0,0.0,9.81,40.94,-6.5,-3.19,40.94,-6.5,-3.19
1751943281341,1.0,0.0,0.0,0.0,0.0,0.0,9.81,38.25,-6.38,-3.06,38.25,-6.38,-3.06
1751943281449,1.0,0.0,0.0,0.0,0.0,0.0,9.81,35.75,-5.94,-2.5,35.75,-5.94,-2.5
1751943281552,1.0,0.0,0.0,0.0,0.0,0.0,9.81,32.75,-5.75,-2.31,32.75,-5.75,-2.31
1751943281659,1.0,0.0,0.0,0.0,0.0,0.0,9.81,30.13,-5.75,-2.63,30.13,-5.75,-2.63
1751943281764,1.0,0.0,0.0,0.0,0.0,0.0,9.81,27.25,-5.13,-2.25,27.25,-5.13,-2.25
1751943281870,1.0,0.0,0.0,0.0,0.0,0.0,9.81,23.5,-5.19,-2.31,23.5,-5.19,-2.31
1751943282075,1.0,0.0,0.0,0.0,0.0,0.0,9.81,18.13,-3.88,-0.75,18.13,-3.88,-0.75
1751943282190,1.0,0.0,0.0,0.0,0.0,0.0,9.81,14.56,-3.94,-1.0,14.56,-3.94,-1.0
1751943282292,1.0,0.0,0.0,0.0,0.0,0.0,9.81,11.56,-3.5,-0.5,11.56,-3.5,-0.5
1751943282409,1.0,0.0,0.0,0.0,0.0,0.0,9.81,9.13,-3.06,-0.63,9.13,-3.06,-0.63
1751943282509,1.0,0.0,0.0,0.0,0.0,0.0,9.81,8.88,-3.56,-0.88,8.88,-3.56,-0.88
1751943282609,1.0,0.0,0.0,0.0,0.0,0.0,9.81,10.0,-3.56,-1.69,10.0,-3.56,-1.69
1751943282726,1.0,0.0,0.0,0.0,0.0,0.0,9.81,12.56,-2.38,0.81,12.56,-2.38,0.81
1751943301890,1.0,0.0,0.0,0.0,0.0,0.0,9.81,0.0,0.0,0.0,0.0,0.0,0.0
1751943302007,1.0,0.0,0.0,0.0,0.0,0.0,9.81,6.88,0.81,-0.25,6.88,0.81,-0.25
1751943302109,1.0,0.0,0.0,0.0,0.0,0.0,9.81,14.31,3.19,-10.44,14.31,3.19,-10.44
1751943302223,1.0,0.0,0.0,0.0,0.0,0.0,9.81,24.63,4.63,-3.31,24.63,4.63,-3.31
1751943302320,1.0,0.0,0.0,0.0,0.0,0.0,9.81,32.38,7.69,0.56,32.38,7.69,0.56
1751943302526,1.0,0.0,0.0,0.0,0.0,0.0,9.81,27.38,3.63,0.13,27.38,3.63,0.13
1751943302636,1.0,0.0,0.0,0.0,0.0,0.0,9.81,19.44,1.0,0.75,19.44,1.0,0.75
1751943302746,1.0,0.0,0.0,0.0,0.0,0.0,9.81,9.75,-1.63,-1.81,9.75,-1.63,-1.81
1751943302855,1.0,0.0,0.0,0.0,0.0,0.0,9.81,355.31,-1.0,-2.56,355.31,-1.0,-2.56
1751943302964,1.0,0.0,0.0,0.0,0.0,0.0,9.81,344.0,1.0,-2.06,344.0,1.0,-2.06
1751943303065,1.0,0.0,0.0,0.0,0.0,0.0,9.81,335.69,2.88,-2.69,335.69,2.88,-2.69
1751943303179,1.0,0.0,0.0,0.0,0.0,0.0,9.81,332.63,4.25,-1.81,332.63,4.25,-1.81
1751943303275,1.0,0.0,0.0,0.0,0.0,0.0,9.81,336.0,3.25,-1.31,336.0,3.25,-1.31
1751943303386,1.0,0.0,0.0,0.0,0.0,0.0,9.81,341.44,1.44,-2.31,341.44,1.44,-2.31
1751943303497,1.0,0.0,0.0,0.0,0.0,0.0,9.81,347.63,0.63,-3.0,347.63,0.63,-3.0
1751943303607,1.0,0.0,0.0,0.0,0.0,0.0,9.81,357.19,0.13,-5.38,357.19,0.13,-5.38
1751943303716,1.0,0.0,0.0,0.0,0.0,0.0,9.81,5.88,0.31,-6.25,5.88,0.31,-6.25
1751943303825,1.0,0.0,0.0,0.0,0.0,0.0,9.81,13.44,1.31,-6.13,13.44,1.31,-6.13
1751943303919,1.0,0.0,0.0,0.0,0.0,0.0,9.81,20.19,2.63,-5.13,20.19,2.63,-5.13
1751943304033,1.0,0.0,0.0,0.0,0.0,0.0,9.81,26.88,4.56,-1.75,26.88,4.56,-1.75
1751943304149,1.0,0.0,0.0,0.0,0.0,0.0,9.81,30.19,6.06,2.44,30.19,6.06,2.44
1751943304246,1.0,0.0,0.0,0.0,0.0,0.0,9.81,31.44,7.56,4.5,31.44,7.56,4.5
1751943304357,1.0,0.0,0.0,0.0,0.0,0.0,9.81,31.13,8.31,5.44,31.13,8.31,5.44
1751943304467,1.0,0.0,0.0,0.0,0.0,0.0,9.81,31.25,8.38,5.88,31.25,8.38,5.88
1751943304576,1.0,0.0,0.0,0.0,0.0,0.0,9.81,33.0,8.44,6.38,33.0,8.44,6.38
1751943304686,1.0,0.0,0.0,0.0,0.0,0.0,9.81,35.75,8.63,6.19,35.75,8.63,6.19
1751943304779,1.0,0.0,0.0,0.0,0.0,0.0,9.81,38.5,8.38,5.81,38.5,8.38,5.81
1751943304888,1.0,0.0,0.0,0.0,0.0,0.0,9.81,42.19,8.63,5.19,42.19,8.63,5.19
1751943305006,1.0,0.0,0.0,0.0,0.0,0.0,9.81,46.06,9.69,4.69,46.06,9.69,4.69
1751943305107,1.0,0.0,0.0,0.0,0.0,0.0,9.81,48.63,9.69,4.25,48.63,9.69,4.25
1751943305218,1.0,0.0,0.0,0.0,0.0,0.0,9.81,51.13,9.56,4.38,51.13,9.56,4.38
1751943305319,1.0,0.0,0.0,0.0,0.0,0.0,9.81,52.88,8.94,4.19,52.88,8.94,4.19
1751943305421,1.0,0.0,0.0,0.0,0.0,0.0,9.81,53.63,8.31,3.88,53.63,8.31,3.88
1751943305523,1.0,0.0,0.0,0.0,0.0,0.0,9.81,53.63,8.13,3.56,53.63,8.13,3.56
1751943305643,1.0,0.0,0.0,0.0,0.0,0.0,9.81,51.75,8.38,3.0,51.75,8.38,3.0
1751943305745,1.0,0.0,0.0,0.0,0.0,0.0,9.81,48.88,9.56,2.63,48.88,9.56,2.63
1751943305848,1.0,0.0,0.0,0.0,0.0,0.0,9.81,44.88,9.81,0.06,44.88,9.81,0.06
1751943305967,1.0,0.0,0.0,0.0,0.0,0.0,9.81,37.5,10.81,-2.31,37.5,10.81,-2.31
1751943306067,1.0,0.0,0.0,0.0,0.0,0.0,9.81,29.0,11.44,-3.63,29.0,11.44,-3.63
1751943306168,1.0,0.0,0.0,0.0,0.0,0.0,9.81,19.06,11.38,-4.06,19.06,11.38,-4.06
1751943306285,1.0,0.0,0.0,0.0,0.0,0.0,9.81,10.88,11.88,-4.5,10.88,11.88,-4.5
1751943306385,1.0,0.0,0.0,0.0,0.0,0.0,9.81,3.06,13.38,-4.94,3.06,13.38,-4.94
1751943306502,1.0,0.0,0.0,0.0,0.0,0.0,9.81,356.44,14.44,-6.06,356.44,14.44,-6.06
1751943306602,1.0,0.0,0.0,0.0,0.0,0.0,9.81,349.38,15.75,-6.0,349.38,15.75,-6.0
1751943306719,1.0,0.0,0.0,0.0,0.0,0.0,9.81,341.0,17.06,-4.81,341.0,17.06,-4.81
1751943306819,1.0,0.0,0.0,0.0,0.0,0.0,9.81,333.88,18.0,-4.63,333.88,18.0,-4.63
1751943306919,1.0,0.0,0.0,0.0,0.0,0.0,9.81,328.44,19.13,-3.5,328.44,19.13,-3.5
1751943307037,1.0,0.0,0.0,0.0,0.0,0.0,9.81,324.0,19.81,-2.75,324.0,19.81,-2.75
1751943307138,1.0,0.0,0.0,0.0,0.0,0.0,9.81,320.06,19.94,-1.88,320.06,19.94,-1.88
1751943307240,1.0,0.0,0.0,0.0,0.0,0.0,9.81,316.06,19.81,-0.63,316.06,19.81,-0.63
1751943307359,1.0,0.0,0.0,0.0,0.0,0.0,9.81,312.06,19.44,1.31,312.06,19.44,1.31
1751943307461,1.0,0.0,0.0,0.0,0.0,0.0,9.81,308.25,18.81,3.44,308.25,18.81,3.44
1751943307563,1.0,0.0,0.0,0.0,0.0,0.0,9.81,305.44,18.88,5.31,305.44,18.88,5.31
1751943307683,1.0,0.0,0.0,0.0,0.0,0.0,9.81,302.19,18.88,7.0,302.19,18.88,7.0
1751943307785,1.0,0.0,0.0,0.0,0.0,0.0,9.81,299.69,18.31,8.31,299.69,18.31,8.31
1751943307888,1.0,0.0,0.0,0.0,0.0,0.0,9.81,297.06,17.75,9.88,297.06,17.75,9.88
1751943308090,1.0,0.0,0.0,0.0,0.0,0.0,9.81,292.06,16.88,12.31,292.06,16.88,12.31
1751943308207,1.0,0.0,0.0,0.0,0.0,0.0,9.81,289.81,16.63,13.25,289.81,16.63,13.25
1751943308307,1.0,0.0,0.0,0.0,0.0,0.0,9.81,287.81,15.88,13.69,287.81,15.88,13.69
1751943308424,1.0,0.0,0.0,0.0,0.0,0.0,9.81,286.13,15.44,14.5,286.13,15.44,14.5
1751943308524,1.0,0.0,0.0,0.0,0.0,0.0,9.81,284.81,15.94,16.0,284.81,15.94,16.0
1751943308641,1.0,0.0,0.0,0.0,0.0,0.0,9.81,283.69,15.31,15.81,283.69,15.31,15.81
1751943308741,1.0,0.0,0.0,0.0,0.0,0.0,9.81,282.69,15.0,16.25,282.69,15.0,16.25
1751943308841,1.0,0.0,0.0,0.0,0.0,0.0,9.81,282.25,14.88,16.94,282.25,14.88,16.94
1751943308960,1.0,0.0,0.0,0.0,0.0,0.0,9.81,282.5,15.06,17.81,282.5,15.06,17.81
1751943309076,1.0,0.0,0.0,0.0,0.0,0.0,9.81,283.94,16.0,18.13,283.94,16.0,18.13
1751943309177,1.0,0.0,0.0,0.0,0.0,0.0,9.81,286.13,17.31,18.75,286.13,17.31,18.75
1751943309277,1.0,0.0,0.0,0.0,0.0,0.0,9.81,289.81,18.31,17.63,289.81,18.31,17.63
1751943309394,1.0,0.0,0.0,0.0,0.0,0.0,9.81,293.81,19.56,16.19,293.81,19.56,16.19
1751943309494,1.0,0.0,0.0,0.0,0.0,0.0,9.81,297.75,21.5,15.38,297.75,21.5,15.38
1751943309594,1.0,0.0,0.0,0.0,0.0,0.0,9.81,302.63,23.06,13.81,302.63,23.06,13.81
1751943309711,1.0,0.0,0.0,0.0,0.0,0.0,9.81,307.94,24.38,11.13,307.94,24.38,11.13
1751943309911,1.0,0.0,0.0,0.0,0.0,0.0,9.81,317.63,25.13,5.63,317.63,25.13,5.63
1751943310029,1.0,0.0,0.0,0.0,0.0,0.0,9.81,321.25,24.75,3.31,321.25,24.75,3.31
1751943310129,1.0,0.0,0.0,0.0,0.0,0.0,9.81,324.69,24.44,1.94,324.69,24.44,1.94
1751943310246,1.0,0.0,0.0,0.0,0.0,0.0,9.81,328.25,23.31,0.0,328.25,23.31,0.0
1751943310346,1.0,0.0,0.0,0.0,0.0,0.0,9.81,331.0,22.13,-0.94,331.0,22.13,-0.94
1751943310463,1.0,0.0,0.0,0.0,0.0,0.0,9.81,332.31,21.19,-2.56,332.31,21.19,-2.56
1751943310563,1.0,0.0,0.0,0.0,0.0,0.0,9.81,333.38,20.56,-1.94,333.38,20.56,-1.94
1751943310664,1.0,0.0,0.0,0.0,0.0,0.0,9.81,334.13,19.94,-1.44,334.13,19.94,-1.44
1751943310779,1.0,0.0,0.0,0.0,0.0,0.0,9.81,334.63,19.38,-1.06,334.63,19.38,-1.06
1751943310880,1.0,0.0,0.0,0.0,0.0,0.0,9.81,334.19,18.63,-1.5,334.19,18.63,-1.5
1751943311098,1.0,0.0,0.0,0.0,0.0,0.0,9.81,332.13,17.81,-1.13,332.13,17.81,-1.13
1751943311198,1.0,0.0,0.0,0.0,0.0,0.0,9.81,331.25,17.63,-0.69,331.25,17.63,-0.69
1751943311298,1.0,0.0,0.0,0.0,0.0,0.0,9.81,330.56,17.5,-0.19,330.56,17.5,-0.19
1751943311415,1.0,0.0,0.0,0.0,0.0,0.0,9.81,330.25,17.38,0.25,330.25,17.38,0.25
1751943311515,1.0,0.0,0.0,0.0,0.0,0.0,9.81,330.44,16.5,0.63,330.44,16.5,0.63
1751943311632,1.0,0.0,0.0,0.0,0.0,0.0,9.81,331.56,13.31,1.44,331.56,13.31,1.44
1751943311732,1.0,0.0,0.0,0.0,0.0,0.0,9.81,333.69,7.19,1.13,333.69,7.19,1.13
1751943311849,1.0,0.0,0.0,0.0,0.0,0.0,9.81,334.63,3.75,2.56,334.63,3.75,2.56
1751943311949,1.0,0.0,0.0,0.0,0.0,0.0,9.81,336.13,2.19,3.5,336.13,2.19,3.5
1751943312051,1.0,0.0,0.0,0.0,0.0,0.0,9.81,339.69,2.19,3.13,339.69,2.19,3.13
1751943312169,1.0,0.0,0.0,0.0,0.0,0.0,9.81,343.69,1.88,3.31,343.69,1.88,3.31
1751943312272,1.0,0.0,0.0,0.0,0.0,0.0,9.81,350.31,0.94,3.44,350.31,0.94,3.44
1751943312375,1.0,0.0,0.0,0.0,0.0,0.0,9.81,353.88,-0.75,3.38,353.88,-0.75,3.38
1751943312480,1.0,0.0,0.0,0.0,0.0,0.0,9.81,356.44,-3.38,3.19,356.44,-3.38,3.19
1751943312689,1.0,0.0,0.0,0.0,0.0,0.0,9.81,4.25,-6.63,4.06,4.25,-6.63,4.06
1751943312798,1.0,0.0,0.0,0.0,0.0,0.0,9.81,8.56,-3.44,4.19,8.56,-3.44,4.19
1751943312903,1.0,0.0,0.0,0.0,0.0,0.0,9.81,13.56,0.13,5.13,13.56,0.13,5.13
1751943313021,1.0,0.0,0.0,0.0,0.0,0.0,9.81,15.38,1.44,7.38,15.38,1.44,7.38
1751943313125,1.0,0.0,0.0,0.0,0.0,0.0,9.81,14.88,1.44,6.25,14.88,1.44,6.25
1751943313225,1.0,0.0,0.0,0.0,0.0,0.0,9.81,15.31,2.38,2.44,15.31,2.38,2.44
1751943313342,1.0,0.0,0.0,0.0,0.0,0.0,9.81,16.75,2.0,1.63,16.75,2.0,1.63
1751943313442,1.0,0.0,0.0,0.0,0.0,0.0,9.81,17.19,1.81,2.44,17.19,1.81,2.44
1751943313559,1.0,0.0,0.0,0.0,0.0,0.0,9.81,16.88,1.75,2.81,16.88,1.75,2.81
1751943313659,1.0,0.0,0.0,0.0,0.0,0.0,9.81,16.81,1.75,2.81,16.81,1.75,2.81
1751943313760,1.0,0.0,0.0,0.0,0.0,0.0,9.81,16.69,1.5,3.0,16.69,1.5,3.0
1751943313868,1.0,0.0,0.0,0.0,0.0,0.0,9.81,16.69,1.38,3.06,16.69,1.38,3.06
1751943314078,1.0,0.0,0.0,0.0,0.0,0.0,9.81,20.31,1.31,3.13,20.31,1.31,3.13
1751943314195,1.0,0.0,0.0,0.0,0.0,0.0,9.81,22.81,1.31,3.13,22.81,1.31,3.13
1751943314295,1.0,0.0,0.0,0.0,0.0,0.0,9.81,24.94,1.31,3.13,24.94,1.31,3.13
1751943314412,1.0,0.0,0.0,0.0,0.0,0.0,9.81,27.56,1.25,3.13,27.56,1.25,3.13
1751943314712,1.0,0.0,0.0,0.0,0.0,0.0,9.81,34.81,0.81,2.88,34.81,0.81,2.88
1751943314929,1.0,0.0,0.0,0.0,0.0,0.0,9.81,40.44,0.63,2.88,40.44,0.63,2.88
1751943315031,1.0,0.0,0.0,0.0,0.0,0.0,9.81,43.63,0.69,2.81,43.63,0.69,2.81
1751943315131,1.0,0.0,0.0,0.0,0.0,0.0,9.81,46.0,0.63,2.69,46.0,0.63,2.69
1751943315247,1.0,0.0,0.0,0.0,0.0,0.0,9.81,47.31,0.56,2.63,47.31,0.56,2.63
1751943315348,1.0,0.0,0.0,0.0,0.0,0.0,9.81,43.5,0.38,2.63,43.5,0.38,2.63
1751943315448,1.0,0.0,0.0,0.0,0.0,0.0,9.81,37.44,0.19,2.69,37.44,0.19,2.69
1751943315565,1.0,0.0,0.0,0.0,0.0,0.0,9.81,30.31,0.0,2.75,30.31,0.0,2.75
1751943315682,1.0,0.0,0.0,0.0,0.0,0.0,9.81,23.38,-0.25,2.75,23.38,-0.25,2.75
1751943315782,1.0,0.0,0.0,0.0,0.0,0.0,9.81,18.5,-0.44,2.81,18.5,-0.44,2.81
1751943315899,1.0,0.0,0.0,0.0,0.0,0.0,9.81,14.44,-0.69,2.75,14.44,-0.69,2.75
1751943315999,1.0,0.0,0.0,0.0,0.0,0.0,9.81,10.94,-0.88,2.69,10.94,-0.88,2.69
1751943316100,1.0,0.0,0.0,0.0,0.0,0.0,9.81,7.94,-1.0,2.69,7.94,-1.0,2.69
1751943316301,1.0,0.0,0.0,0.0,0.0,0.0,9.81,1.25,-1.25,2.56,1.25,-1.25,2.56
1751943316419,1.0,0.0,0.0,0.0,0.0,0.0,9.81,357.88,-1.31,2.5,357.88,-1.31,2.5
1751943316521,1.0,0.0,0.0,0.0,0.0,0.0,9.81,355.69,-1.44,2.5,355.69,-1.44,2.5
1751943316639,1.0,0.0,0.0,0.0,0.0,0.0,9.81,354.13,-1.5,2.5,354.13,-1.5,2.5
1751943316741,1.0,0.0,0.0,0.0,0.0,0.0,9.81,353.63,-1.56,2.44,353.63,-1.56,2.44
1751943316843,1.0,0.0,0.0,0.0,0.0,0.0,9.81,353.56,-1.56,2.44,353.56,-1.56,2.44
1751943316952,1.0,0.0,0.0,0.0,0.0,0.0,9.81,355.0,-1.5,2.5,355.0,-1.5,2.5
1751943317057,1.0,0.0,0.0,0.0,0.0,0.0,9.81,359.0,-1.38,2.56,359.0,-1.38,2.56
1751943317166,1.0,0.0,0.0,0.0,0.0,0.0,9.81,3.94,-1.19,2.69,3.94,-1.19,2.69
1751943317283,1.0,0.0,0.0,0.0,0.0,0.0,9.81,9.25,-1.0,2.81,9.25,-1.0,2.81
1751943317382,1.0,0.0,0.0,0.0,0.0,0.0,9.81,14.69,-0.81,2.94,14.69,-0.81,2.94
1751943317483,1.0,0.0,0.0,0.0,0.0,0.0,9.81,19.94,-0.63,2.81,19.94,-0.63,2.81
1751943317600,1.0,0.0,0.0,0.0,0.0,0.0,9.81,23.63,-0.5,2.25,23.63,-0.5,2.25
1751943317717,1.0,0.0,0.0,0.0,0.0,0.0,9.81,23.75,-0.5,2.19,23.75,-0.5,2.19
1751943317817,1.0,0.0,0.0,0.0,0.0,0.0,9.81,23.0,-0.56,1.44,23.0,-0.56,1.44
1751943317917,1.0,0.0,0.0,0.0,0.0,0.0,9.81,22.81,-0.56,1.56,22.81,-0.56,1.56
1751943318035,1.0,0.0,0.0,0.0,0.0,0.0,9.81,25.13,-0.56,0.44,25.13,-0.56,0.44
1751943318135,1.0,0.0,0.0,0.0,0.0,0.0,9.81,24.94,-0.63,0.38,24.94,-0.63,0.38
1751943318235,1.0,0.0,0.0,0.0,0.0,0.0,9.81,23.44,-2.38,1.63,23.44,-2.38,1.63
1751943318352,1.0,0.0,0.0,0.0,0.0,0.0,9.81,22.13,-4.88,1.5,22.13,-4.88,1.5
1751943318452,1.0,0.0,0.0,0.0,0.0,0.0,9.81,21.69,-4.69,0.19,21.69,-4.69,0.19
1751943318569,1.0,0.0,0.0,0.0,0.0,0.0,9.81,21.63,-2.19,1.06,21.63,-2.19,1.06
1751943318669,1.0,0.0,0.0,0.0,0.0,0.0,9.81,21.31,0.31,1.38,21.31,0.31,1.38
1751943318770,1.0,0.0,0.0,0.0,0.0,0.0,9.81,21.56,1.13,0.19,21.56,1.13,0.19
1751943318886,1.0,0.0,0.0,0.0,0.0,0.0,9.81,22.56,1.75,-0.88,22.56,1.75,-0.88
1751943318987,1.0,0.0,0.0,0.0,0.0,0.0,9.81,23.0,1.38,-1.56,23.0,1.38,-1.56
1751943319104,1.0,0.0,0.0,0.0,0.0,0.0,9.81,23.63,1.88,-4.94,23.63,1.88,-4.94
1751943319204,1.0,0.0,0.0,0.0,0.0,0.0,9.81,24.06,3.56,-8.06,24.06,3.56,-8.06
1751943319305,1.0,0.0,0.0,0.0,0.0,0.0,9.81,24.56,5.69,-8.88,24.56,5.69,-8.88
1751943319522,1.0,0.0,0.0,0.0,0.0,0.0,9.81,25.38,7.69,-3.5,25.38,7.69,-3.5
1751943319622,1.0,0.0,0.0,0.0,0.0,0.0,9.81,25.25,7.63,-0.06,25.25,7.63,-0.06
1751943319739,1.0,0.0,0.0,0.0,0.0,0.0,9.81,24.44,6.31,2.81,24.44,6.31,2.81
1751943319839,1.0,0.0,0.0,0.0,0.0,0.0,9.81,24.5,6.63,5.31,24.5,6.63,5.31
1751943319956,1.0,0.0,0.0,0.0,0.0,0.0,9.81,24.38,6.13,7.94,24.38,6.13,7.94
1751943320057,1.0,0.0,0.0,0.0,0.0,0.0,9.81,23.88,5.19,9.75,23.88,5.19,9.75
1751943320374,1.0,0.0,0.0,0.0,0.0,0.0,9.81,23.5,3.44,13.81,23.5,3.44,13.81
1751943320474,1.0,0.0,0.0,0.0,0.0,0.0,9.81,23.13,2.75,15.38,23.13,2.75,15.38
1751943320591,1.0,0.0,0.0,0.0,0.0,0.0,9.81,22.25,1.69,17.5,22.25,1.69,17.5
1751943320708,1.0,0.0,0.0,0.0,0.0,0.0,9.81,21.75,-0.06,19.5,21.75,-0.06,19.5
1751943320808,1.0,0.0,0.0,0.0,0.0,0.0,9.81,21.44,-1.38,21.5,21.44,-1.38,21.5
1751943320908,1.0,0.0,0.0,0.0,0.0,0.0,9.81,21.5,-3.38,25.75,21.5,-3.38,25.75
1751943321127,1.0,0.0,0.0,0.0,0.0,0.0,9.81,21.38,-5.94,35.5,21.38,-5.94,35.5
1751943321227,1.0,0.0,0.0,0.0,0.0,0.0,9.81,70.69,-6.0,38.0,70.69,-6.0,38.0
1751943321344,1.0,0.0,0.0,0.0,0.0,0.0,9.81,70.69,-6.69,41.63,70.69,-6.69,41.63
1751943321446,1.0,0.0,0.0,0.0,0.0,0.0,9.81,71.0,-7.38,46.81,71.0,-7.38,46.81
1751943321547,1.0,0.0,0.0,0.0,0.0,0.0,9.81,71.5,-7.56,49.38,71.5,-7.56,49.38
1751943321664,1.0,0.0,0.0,0.0,0.0,0.0,9.81,71.56,-7.75,49.75,71.56,-7.75,49.75
1751943321764,1.0,0.0,0.0,0.0,0.0,0.0,9.81,71.75,-7.88,50.44,71.75,-7.88,50.44
1751943321881,1.0,0.0,0.0,0.0,0.0,0.0,9.81,71.88,-7.94,51.19,71.88,-7.94,51.19
1751943321982,1.0,0.0,0.0,0.0,0.0,0.0,9.81,72.44,-7.25,52.06,72.44,-7.25,52.06
1751943322200,1.0,0.0,0.0,0.0,0.0,0.0,9.81,74.25,-1.63,51.94,74.25,-1.63,51.94
1751943322300,1.0,0.0,0.0,0.0,0.0,0.0,9.81,75.25,0.19,51.69,75.25,0.19,51.69
1751943322417,1.0,0.0,0.0,0.0,0.0,0.0,9.81,76.0,1.69,50.75,76.0,1.69,50.75
1751943322517,1.0,0.0,0.0,0.0,0.0,0.0,9.81,76.13,3.38,49.19,76.13,3.38,49.19
1751943322634,1.0,0.0,0.0,0.0,0.0,0.0,9.81,76.31,4.88,47.13,76.31,4.88,47.13
1751943322734,1.0,0.0,0.0,0.0,0.0,0.0,9.81,76.81,8.0,40.63,76.81,8.0,40.63
1751943322851,1.0,0.0,0.0,0.0,0.0,0.0,9.81,77.38,12.56,34.75,77.38,12.56,34.75
1751943323052,1.0,0.0,0.0,0.0,0.0,0.0,9.81,77.81,20.69,22.44,77.81,20.69,22.44
1751943323169,1.0,0.0,0.0,0.0,0.0,0.0,9.81,78.38,24.94,14.81,78.38,24.94,14.81
1751943323269,1.0,0.0,0.0,0.0,0.0,0.0,9.81,79.13,29.25,6.31,79.13,29.25,6.31
1751943323385,1.0,0.0,0.0,0.0,0.0,0.0,9.81,80.69,32.94,-0.88,80.69,32.94,-0.88
1751943323486,1.0,0.0,0.0,0.0,0.0,0.0,9.81,81.63,33.81,-8.13,81.63,33.81,-8.13
1751943323602,1.0,0.0,0.0,0.0,0.0,0.0,9.81,81.63,31.25,-14.88,81.63,31.25,-14.88
1751943323702,1.0,0.0,0.0,0.0,0.0,0.0,9.81,80.38,25.63,-18.81,80.38,25.63,-18.81
1751943323803,1.0,0.0,0.0,0.0,0.0,0.0,9.81,79.19,20.94,-21.38,79.19,20.94,-21.38
1751943323919,1.0,0.0,0.0,0.0,0.0,0.0,9.81,79.81,21.75,-21.38,79.81,21.75,-21.38
1751943324020,1.0,0.0,0.0,0.0,0.0,0.0,9.81,81.63,22.56,-18.56,81.63,22.56,-18.56
1751943324238,1.0,0.0,0.0,0.0,0.0,0.0,9.81,87.69,18.06,-14.94,87.69,18.06,-14.94
1751943324338,1.0,0.0,0.0,0.0,0.0,0.0,9.81,90.31,18.0,-14.25,90.31,18.0,-14.25
1751943324438,1.0,0.0,0.0,0.0,0.0,0.0,9.81,91.94,16.88,-14.38,91.94,16.88,-14.38
1751943324555,1.0,0.0,0.0,0.0,0.0,0.0,9.81,91.56,16.0,-14.19,91.56,16.0,-14.19
1751943324655,1.0,0.0,0.0,0.0,0.0,0.0,9.81,88.44,14.63,-12.69,88.44,14.63,-12.69
1751943324755,1.0,0.0,0.0,0.0,0.0,0.0,9.81,87.19,16.44,-10.31,87.19,16.44,-10.31
1751943324873,1.0,0.0,0.0,0.0,0.0,0.0,9.81,87.19,21.44,-5.31,87.19,21.44,-5.31
1751943324972,1.0,0.0,0.0,0.0,0.0,0.0,9.81,85.56,24.44,0.0,85.56,24.44,0.0
1751943325091,1.0,0.0,0.0,0.0,0.0,0.0,9.81,85.38,22.75,2.56,85.38,22.75,2.56
1751943325191,1.0,0.0,0.0,0.0,0.0,0.0,9.81,85.44,15.44,-2.5,85.44,15.44,-2.5
1751943325291,1.0,0.0,0.0,0.0,0.0,0.0,9.81,82.31,11.06,-4.38,82.31,11.06,-4.38
1751943325407,1.0,0.0,0.0,0.0,0.0,0.0,9.81,79.19,9.25,-3.63,79.19,9.25,-3.63
1751943325508,1.0,0.0,0.0,0.0,0.0,0.0,9.81,76.88,5.75,-0.06,76.88,5.75,-0.06
1751943325725,1.0,0.0,0.0,0.0,0.0,0.0,9.81,70.63,1.63,-5.06,70.63,1.63,-5.06
1751943325825,1.0,0.0,0.0,0.0,0.0,0.0,9.81,69.13,-3.44,-5.19,69.13,-3.44,-5.19
1751943325941,1.0,0.0,0.0,0.0,0.0,0.0,9.81,67.75,-4.69,-4.5,67.75,-4.69,-4.5
1751943326042,1.0,0.0,0.0,0.0,0.0,0.0,9.81,64.5,-4.81,-3.19,64.5,-4.81,-3.19
1751943326159,1.0,0.0,0.0,0.0,0.0,0.0,9.81,59.63,-4.44,-3.5,59.63,-4.44,-3.5
1751943326261,1.0,0.0,0.0,0.0,0.0,0.0,9.81,54.81,-4.25,-3.06,54.81,-4.25,-3.06
1751943326363,1.0,0.0,0.0,0.0,0.0,0.0,9.81,51.44,-2.75,-3.19,51.44,-2.75,-3.19
1751943326467,1.0,0.0,0.0,0.0,0.0,0.0,9.81,49.0,-2.25,-3.81,49.0,-2.25,-3.81
1751943326570,1.0,0.0,0.0,0.0,0.0,0.0,9.81,48.25,-2.5,-4.25,48.25,-2.5,-4.25
1751943326692,1.0,0.0,0.0,0.0,0.0,0.0,9.81,48.75,-1.44,-3.0,48.75,-1.44,-3.0
1751943326800,1.0,0.0,0.0,0.0,0.0,0.0,9.81,50.56,-0.19,-1.75,50.56,-0.19,-1.75
1751943327008,1.0,0.0,0.0,0.0,0.0,0.0,9.81,55.19,-1.44,0.06,55.19,-1.44,0.06
1751943327112,1.0,0.0,0.0,0.0,0.0,0.0,9.81,56.94,-2.31,0.69,56.94,-2.31,0.69
1751943327212,1.0,0.0,0.0,0.0,0.0,0.0,9.81,58.0,-3.06,1.13,58.0,-3.06,1.13
1751943327312,1.0,0.0,0.0,0.0,0.0,0.0,9.81,56.81,-3.25,1.19,56.81,-3.25,1.19
1751943327429,1.0,0.0,0.0,0.0,0.0,0.0,9.81,54.19,-2.5,1.25,54.19,-2.5,1.25
1751943327529,1.0,0.0,0.0,0.0,0.0,0.0,9.81,50.81,-1.63,1.5,50.81,-1.63,1.5
1751943327629,1.0,0.0,0.0,0.0,0.0,0.0,9.81,48.0,-1.0,1.0,48.0,-1.0,1.0
1751943327747,1.0,0.0,0.0,0.0,0.0,0.0,9.81,46.13,-0.56,1.81,46.13,-0.56,1.81
1751943327962,1.0,0.0,0.0,0.0,0.0,0.0,9.81,47.19,1.06,4.38,47.19,1.06,4.38
1751943328063,1.0,0.0,0.0,0.0,0.0,0.0,9.81,49.5,1.69,4.44,49.5,1.69,4.44
1751943328164,1.0,0.0,0.0,0.0,0.0,0.0,9.81,54.75,3.19,1.56,54.75,3.19,1.56
1751943328264,1.0,0.0,0.0,0.0,0.0,0.0,9.81,61.19,6.38,-3.31,61.19,6.38,-3.31
1751943328381,1.0,0.0,0.0,0.0,0.0,0.0,9.81,69.38,10.5,-12.19,69.38,10.5,-12.19
1751943328481,1.0,0.0,0.0,0.0,0.0,0.0,9.81,78.06,15.81,-22.75,78.06,15.81,-22.75
1751943328582,1.0,0.0,0.0,0.0,0.0,0.0,9.81,86.81,18.44,-32.75,86.81,18.44,-32.75
1751943328698,1.0,0.0,0.0,0.0,0.0,0.0,9.81,93.63,20.94,-40.56,93.63,20.94,-40.56
1751943328798,1.0,0.0,0.0,0.0,0.0,0.0,9.81,98.31,23.63,-47.25,98.31,23.63,-47.25
1751943328915,1.0,0.0,0.0,0.0,0.0,0.0,9.81,101.56,25.44,-53.31,101.56,25.44,-53.31
1751943329016,1.0,0.0,0.0,0.0,0.0,0.0,9.81,106.13,26.25,-59.13,106.13,26.25,-59.13
1751943329134,1.0,0.0,0.0,0.0,0.0,0.0,9.81,106.69,26.31,-59.44,106.69,26.31,-59.44
1751943329234,1.0,0.0,0.0,0.0,0.0,0.0,9.81,107.13,26.06,-59.25,107.13,26.06,-59.25
1751943329334,1.0,0.0,0.0,0.0,0.0,0.0,9.81,110.81,26.69,-63.25,110.81,26.69,-63.25
1751943329450,1.0,0.0,0.0,0.0,0.0,0.0,9.81,113.69,29.19,-70.31,113.69,29.19,-70.31
1751943329551,1.0,0.0,0.0,0.0,0.0,0.0,9.81,116.44,29.75,-76.69,116.44,29.75,-76.69
1751943329667,1.0,0.0,0.0,0.0,0.0,0.0,9.81,117.0,28.56,-77.75,117.0,28.56,-77.75
1751943329768,1.0,0.0,0.0,0.0,0.0,0.0,9.81,119.75,25.75,-80.31,119.75,25.75,-80.31
1751943329884,1.0,0.0,0.0,0.0,0.0,0.0,9.81,121.44,22.81,-82.88,121.44,22.81,-82.88
1751943329984,1.0,0.0,0.0,0.0,0.0,0.0,9.81,124.69,20.5,-86.0,124.69,20.5,-86.0
1751943330085,1.0,0.0,0.0,0.0,0.0,0.0,9.81,127.44,18.19,-87.75,127.44,18.19,-87.75
1751943330203,1.0,0.0,0.0,0.0,0.0,0.0,9.81,129.88,16.38,-89.38,129.88,16.38,-89.38
1751943330304,1.0,0.0,0.0,0.0,0.0,0.0,9.81,133.31,14.13,-91.25,133.31,14.13,-91.25
1751943330407,1.0,0.0,0.0,0.0,0.0,0.0,9.81,136.13,12.06,-92.94,136.13,12.06,-92.94
1751943330527,1.0,0.0,0.0,0.0,0.0,0.0,9.81,138.44,10.25,-94.31,138.44,10.25,-94.31
1751943330633,1.0,0.0,0.0,0.0,0.0,0.0,9.81,139.56,9.0,-94.69,139.56,9.0,-94.69
1751943330736,1.0,0.0,0.0,0.0,0.0,0.0,9.81,138.75,8.75,-94.69,138.75,8.75,-94.69
1751943330842,1.0,0.0,0.0,0.0,0.0,0.0,9.81,134.44,10.69,-93.75,134.44,10.69,-93.75
1751943330946,1.0,0.0,0.0,0.0,0.0,0.0,9.81,130.13,12.69,-91.88,130.13,12.69,-91.88
1751943331071,1.0,0.0,0.0,0.0,0.0,0.0,9.81,126.13,14.88,-90.19,126.13,14.88,-90.19
1751943331158,1.0,0.0,0.0,0.0,0.0,0.0,9.81,125.0,15.94,-89.69,125.0,15.94,-89.69
1751943331275,1.0,0.0,0.0,0.0,0.0,0.0,9.81,127.69,13.75,-91.13,127.69,13.75,-91.13
1751943331576,1.0,0.0,0.0,0.0,0.0,0.0,9.81,153.88,-2.63,-99.44,153.88,-2.63,-99.44
1751943331693,1.0,0.0,0.0,0.0,0.0,0.0,9.81,162.25,-7.5,-103.31,162.25,-7.5,-103.31
1751943331793,1.0,0.0,0.0,0.0,0.0,0.0,9.81,171.56,-12.44,-107.31,171.56,-12.44,-107.31
1751943331910,1.0,0.0,0.0,0.0,0.0,0.0,9.81,181.0,-18.0,-110.5,181.0,-18.0,-110.5
1751943332010,1.0,0.0,0.0,0.0,0.0,0.0,9.81,196.13,-26.25,-112.38,196.13,-26.25,-112.38
1751943332110,1.0,0.0,0.0,0.0,0.0,0.0,9.81,210.94,-34.19,-113.5,210.94,-34.19,-113.5
1751943332228,1.0,0.0,0.0,0.0,0.0,0.0,9.81,221.69,-40.44,-115.13,221.69,-40.44,-115.13
1751943332326,1.0,0.0,0.0,0.0,0.0,0.0,9.81,225.94,-43.5,-116.19,225.94,-43.5,-116.19
1751943332438,1.0,0.0,0.0,0.0,0.0,0.0,9.81,225.19,-43.94,-115.88,225.19,-43.94,-115.88
1751943332549,1.0,0.0,0.0,0.0,0.0,0.0,9.81,216.19,-39.38,-115.38,216.19,-39.38,-115.38
1751943332659,1.0,0.0,0.0,0.0,0.0,0.0,9.81,184.06,-21.06,-114.5,184.06,-21.06,-114.5
1751943332769,1.0,0.0,0.0,0.0,0.0,0.0,9.81,131.88,7.06,-111.81,131.88,7.06,-111.81
1751943332862,1.0,0.0,0.0,0.0,0.0,0.0,9.81,91.88,30.0,-107.19,91.88,30.0,-107.19
1751943332972,1.0,0.0,0.0,0.0,0.0,0.0,9.81,51.81,55.81,-93.75,51.81,55.81,-93.75
1751943333080,1.0,0.0,0.0,0.0,0.0,0.0,9.81,6.19,83.81,1.13,6.19,83.81,1.13
1751943333181,1.0,0.0,0.0,0.0,0.0,0.0,9.81,338.44,58.0,50.63,338.44,58.0,50.63
1751943333301,1.0,0.0,0.0,0.0,0.0,0.0,9.81,330.81,42.25,43.88,330.81,42.25,43.88
1751943333404,1.0,0.0,0.0,0.0,0.0,0.0,9.81,335.0,39.75,31.38,335.0,39.75,31.38
1751943333507,1.0,0.0,0.0,0.0,0.0,0.0,9.81,347.56,45.13,5.88,347.56,45.13,5.88
1751943333628,1.0,0.0,0.0,0.0,0.0,0.0,9.81,357.69,43.75,-10.25,357.69,43.75,-10.25
1751943333730,1.0,0.0,0.0,0.0,0.0,0.0,9.81,357.19,38.06,-12.94,357.19,38.06,-12.94
1751943334026,1.0,0.0,0.0,0.0,0.0,0.0,9.81,341.88,27.5,-4.38,341.88,27.5,-4.38
1751943334130,1.0,0.0,0.0,0.0,0.0,0.0,9.81,341.0,32.06,0.25,341.0,32.06,0.25
1751943334347,1.0,0.0,0.0,0.0,0.0,0.0,9.81,337.63,31.63,1.0,337.63,31.63,1.0
1751943334447,1.0,0.0,0.0,0.0,0.0,0.0,9.81,336.38,30.75,2.69,336.38,30.75,2.69
1751943334564,1.0,0.0,0.0,0.0,0.0,0.0,9.81,334.94,32.06,8.81,334.94,32.06,8.81
1751943334664,1.0,0.0,0.0,0.0,0.0,0.0,9.81,338.13,35.13,11.94,338.13,35.13,11.94
1751943334772,1.0,0.0,0.0,0.0,0.0,0.0,9.81,335.88,32.19,12.69,335.88,32.19,12.69
1751943334880,1.0,0.0,0.0,0.0,0.0,0.0,9.81,333.38,30.19,10.88,333.38,30.19,10.88
1751943334983,1.0,0.0,0.0,0.0,0.0,0.0,9.81,330.44,32.13,8.94,330.44,32.13,8.94
1751943335085,1.0,0.0,0.0,0.0,0.0,0.0,9.81,323.81,31.19,9.25,323.81,31.19,9.25
1751943335203,1.0,0.0,0.0,0.0,0.0,0.0,9.81,320.19,27.06,7.13,320.19,27.06,7.13
1751943335303,1.0,0.0,0.0,0.0,0.0,0.0,9.81,317.19,25.5,4.63,317.19,25.5,4.63
1751943335420,1.0,0.0,0.0,0.0,0.0,0.0,9.81,313.63,24.13,2.5,313.63,24.13,2.5
1751943335621,1.0,0.0,0.0,0.0,0.0,0.0,9.81,312.13,21.31,-0.5,312.13,21.31,-0.5
1751943335739,1.0,0.0,0.0,0.0,0.0,0.0,9.81,312.81,18.81,-1.25,312.81,18.81,-1.25
1751943335840,1.0,0.0,0.0,0.0,0.0,0.0,9.81,313.38,18.13,-0.94,313.38,18.13,-0.94
1751943336161,1.0,0.0,0.0,0.0,0.0,0.0,9.81,313.75,17.94,-0.75,313.75,17.94,-0.75
1751943336260,1.0,0.0,0.0,0.0,0.0,0.0,9.81,313.94,17.63,-0.5,313.94,17.63,-0.5
1751943336377,1.0,0.0,0.0,0.0,0.0,0.0,9.81,314.56,17.81,-0.75,314.56,17.81,-0.75
1751943336477,1.0,0.0,0.0,0.0,0.0,0.0,9.81,315.5,18.5,-0.94,315.5,18.5,-0.94
1751943336594,1.0,0.0,0.0,0.0,0.0,0.0,9.81,316.31,18.5,-1.31,316.31,18.5,-1.31
1751943336694,1.0,0.0,0.0,0.0,0.0,0.0,9.81,317.25,18.75,-1.31,317.25,18.75,-1.31
1751943336895,1.0,0.0,0.0,0.0,0.0,0.0,9.81,318.06,19.19,-1.5,318.06,19.19,-1.5
1751943337012,1.0,0.0,0.0,0.0,0.0,0.0,9.81,318.44,19.19,-1.63,318.44,19.19,-1.63
1751943337113,1.0,0.0,0.0,0.0,0.0,0.0,9.81,318.5,19.06,-1.56,318.5,19.06,-1.56
1751943337231,1.0,0.0,0.0,0.0,0.0,0.0,9.81,319.0,19.25,-1.69,319.0,19.25,-1.69
1751943337331,1.0,0.0,0.0,0.0,0.0,0.0,9.81,319.25,19.38,-1.88,319.25,19.38,-1.88
1751943337431,1.0,0.0,0.0,0.0,0.0,0.0,9.81,319.5,19.31,-1.75,319.5,19.31,-1.75
1751943337548,1.0,0.0,0.0,0.0,0.0,0.0,9.81,319.94,19.25,-1.81,319.94,19.25,-1.81
1751943337648,1.0,0.0,0.0,0.0,0.0,0.0,9.81,320.19,19.75,-1.81,320.19,19.75,-1.81
1751943337765,1.0,0.0,0.0,0.0,0.0,0.0,9.81,320.25,19.88,-1.63,320.25,19.88,-1.63
1751943337865,1.0,0.0,0.0,0.0,0.0,0.0,9.81,321.06,20.19,-0.19,321.06,20.19,-0.19
1751943337981,1.0,0.0,0.0,0.0,0.0,0.0,9.81,321.56,21.88,1.25,321.56,21.88,1.25
1751943338081,1.0,0.0,0.0,0.0,0.0,0.0,9.81,322.0,21.38,0.19,322.0,21.38,0.19
1751943338183,1.0,0.0,0.0,0.0,0.0,0.0,9.81,323.5,21.44,0.5,323.5,21.44,0.5
1751943338283,1.0,0.0,0.0,0.0,0.0,0.0,9.81,321.19,15.88,-1.44,321.19,15.88,-1.44
1751943338400,1.0,0.0,0.0,0.0,0.0,0.0,9.81,317.63,12.81,-4.0,317.63,12.81,-4.0
1751943338496,1.0,0.0,0.0,0.0,0.0,0.0,9.81,317.19,13.75,-5.31,317.19,13.75,-5.31
1751943338617,1.0,0.0,0.0,0.0,0.0,0.0,9.81,317.38,13.63,-6.31,317.38,13.63,-6.31
1751943338717,1.0,0.0,0.0,0.0,0.0,0.0,9.81,317.5,13.56,-6.75,317.5,13.56,-6.75
1751943338834,1.0,0.0,0.0,0.0,0.0,0.0,9.81,317.63,13.75,-6.94,317.63,13.75,-6.94
1751943338934,1.0,0.0,0.0,0.0,0.0,0.0,9.81,319.06,13.19,-7.13,319.06,13.19,-7.13
1751943339034,1.0,0.0,0.0,0.0,0.0,0.0,9.81,323.88,10.81,-6.38,323.88,10.81,-6.38
1751943339134,1.0,0.0,0.0,0.0,0.0,0.0,9.81,323.25,11.25,-7.06,323.25,11.25,-7.06
1751943339252,1.0,0.0,0.0,0.0,0.0,0.0,9.81,323.13,11.63,-7.44,323.13,11.63,-7.44
1751943339367,1.0,0.0,0.0,0.0,0.0,0.0,9.81,323.5,11.75,-7.5,323.5,11.75,-7.5
1751943339461,1.0,0.0,0.0,0.0,0.0,0.0,9.81,323.56,10.75,-8.38,323.56,10.75,-8.38
1751943339575,1.0,0.0,0.0,0.0,0.0,0.0,9.81,321.56,7.88,-13.94,321.56,7.88,-13.94
1751943339686,1.0,0.0,0.0,0.0,0.0,0.0,9.81,321.5,1.63,-20.88,321.5,1.63,-20.88
1751943339781,1.0,0.0,0.0,0.0,0.0,0.0,9.81,320.56,1.44,-28.06,320.56,1.44,-28.06
1751943339892,1.0,0.0,0.0,0.0,0.0,0.0,9.81,322.75,-1.19,-30.69,322.75,-1.19,-30.69
1751943340002,1.0,0.0,0.0,0.0,0.0,0.0,9.81,327.75,-4.13,-24.06,327.75,-4.13,-24.06
1751943340112,1.0,0.0,0.0,0.0,0.0,0.0,9.81,331.38,-4.13,-15.19,331.38,-4.13,-15.19
1751943340218,1.0,0.0,0.0,0.0,0.0,0.0,9.81,331.75,-4.06,-16.56,331.75,-4.06,-16.56
1751943340318,1.0,0.0,0.0,0.0,0.0,0.0,9.81,330.69,1.13,12.63,330.69,1.13,12.63
1751943340435,1.0,0.0,0.0,0.0,0.0,0.0,9.81,327.44,-2.94,6.0,327.44,-2.94,6.0
1751943340535,1.0,0.0,0.0,0.0,0.0,0.0,9.81,327.56,-3.63,4.75,327.56,-3.63,4.75
1751943340636,1.0,0.0,0.0,0.0,0.0,0.0,9.81,327.94,-3.63,4.81,327.94,-3.63,4.81
1751943340754,1.0,0.0,0.0,0.0,0.0,0.0,9.81,327.94,-3.63,4.81,327.94,-3.63,4.81
1751943340955,1.0,0.0,0.0,0.0,0.0,0.0,9.81,328.44,-3.63,4.81,328.44,-3.63,4.81
1751943341073,1.0,0.0,0.0,0.0,0.0,0.0,9.81,329.06,-3.63,4.81,329.06,-3.63,4.81
1751943341175,1.0,0.0,0.0,0.0,0.0,0.0,9.81,329.63,-3.63,4.81,329.63,-3.63,4.81
1751943341292,1.0,0.0,0.0,0.0,0.0,0.0,9.81,330.25,-3.63,4.81,330.25,-3.63,4.81
1751943341392,1.0,0.0,0.0,0.0,0.0,0.0,9.81,330.56,-3.63,4.81,330.56,-3.63,4.81
1751943341492,1.0,0.0,0.0,0.0,0.0,0.0,9.81,330.69,-3.63,4.81,330.69,-3.63,4.81
1751943341609,1.0,0.0,0.0,0.0,0.0,0.0,9.81,331.19,-3.63,4.81,331.19,-3.63,4.81
1751943341726,1.0,0.0,0.0,0.0,0.0,0.0,9.81,331.69,-3.63,4.81,331.69,-3.63,4.81
1751943341826,1.0,0.0,0.0,0.0,0.0,0.0,9.81,331.69,-3.63,4.81,331.69,-3.63,4.81
1751943341926,1.0,0.0,0.0,0.0,0.0,0.0,9.81,331.88,-3.63,4.81,331.88,-3.63,4.81
1751943342043,1.0,0.0,0.0,0.0,0.0,0.0,9.81,332.13,-3.63,4.81,332.13,-3.63,4.81
1751943342144,1.0,0.0,0.0,0.0,0.0,0.0,9.81,332.19,-3.63,4.81,332.19,-3.63,4.81
1751943342345,1.0,0.0,0.0,0.0,0.0,0.0,9.81,332.63,-3.63,4.81,332.63,-3.63,4.81
1751943342462,1.0,0.0,0.0,0.0,0.0,0.0,9.81,332.81,-3.63,4.81,332.81,-3.63,4.81
1751943342668,1.0,0.0,0.0,0.0,0.0,0.0,9.81,333.0,-3.63,4.81,333.0,-3.63,4.81
1751943342768,1.0,0.0,0.0,0.0,0.0,0.0,9.81,333.25,-3.63,4.81,333.25,-3.63,4.81
1751943342885,1.0,0.0,0.0,0.0,0.0,0.0,9.81,333.25,-3.63,4.81,333.25,-3.63,4.81
1751943342985,1.0,0.0,0.0,0.0,0.0,0.0,9.81,333.25,-3.63,4.81,333.25,-3.63,4.81
1751943343102,1.0,0.0,0.0,0.0,0.0,0.0,9.81,333.25,-3.63,4.81,333.25,-3.63,4.81
1751943343204,1.0,0.0,0.0,0.0,0.0,0.0,9.81,333.25,-3.63,4.81,333.25,-3.63,4.81
1751943343304,1.0,0.0,0.0,0.0,0.0,0.0,9.81,333.25,-3.63,4.81,333.25,-3.63,4.81
1751943343421,1.0,0.0,0.0,0.0,0.0,0.0,9.81,333.25,-3.63,4.81,333.25,-3.63,4.81
1751943343521,1.0,0.0,0.0,0.0,0.0,0.0,9.81,333.25,-3.63,4.81,333.25,-3.63,4.81
1751943343638,1.0,0.0,0.0,0.0,0.0,0.0,9.81,333.25,-3.63,4.81,333.25,-3.63,4.81
1751943343738,1.0,0.0,0.0,0.0,0.0,0.0,9.81,333.25,-3.63,4.81,333.25,-3.63,4.81
1751943343839,1.0,0.0,0.0,0.0,0.0,0.0,9.81,333.25,-3.63,4.81,333.25,-3.63,4.81
1751943343955,1.0,0.0,0.0,0.0,0.0,0.0,9.81,333.25,-3.63,4.81,333.25,-3.63,4.81
1751943344055,1.0,0.0,0.0,0.0,0.0,0.0,9.81,333.25,-3.63,4.81,333.25,-3.63,4.81
1751943344257,1.0,0.0,0.0,0.0,0.0,0.0,9.81,333.25,-3.63,4.81,333.25,-3.63,4.81
1751943344374,1.0,0.0,0.0,0.0,0.0,0.0,9.81,333.25,-3.63,4.81,333.25,-3.63,4.81
1751943344474,1.0,0.0,0.0,0.0,0.0,0.0,9.81,333.25,-3.63,4.81,333.25,-3.63,4.81
1751943344591,1.0,0.0,0.0,0.0,0.0,0.0,9.81,333.25,-3.63,4.81,333.25,-3.63,4.81
1751943344691,1.0,0.0,0.0,0.0,0.0,0.0,9.81,333.25,-3.63,4.81,333.25,-3.63,4.81
1751943345008,1.0,0.0,0.0,0.0,0.0,0.0,9.81,333.25,-3.63,4.81,333.25,-3.63,4.81
1751943345108,1.0,0.0,0.0,0.0,0.0,0.0,9.81,333.25,-3.63,4.81,333.25,-3.63,4.81
1751943345209,1.0,0.0,0.0,0.0,0.0,0.0,9.81,333.25,-3.63,4.81,333.25,-3.63,4.81
1751943345350,1.0,0.0,0.0,0.0,0.0,0.0,9.81,333.25,-3.63,4.81,333.25,-3.63,4.81
1751943345436,1.0,0.0,0.0,0.0,0.0,0.0,9.81,333.25,-3.63,4.81,333.25,-3.63,4.81
1751943345740,1.0,0.0,0.0,0.0,0.0,0.0,9.81,333.25,-3.63,4.81,333.25,-3.63,4.81
1751943345841,1.0,0.0,0.0,0.0,0.0,0.0,9.81,333.25,-3.63,4.81,333.25,-3.63,4.81
1751943345941,1.0,0.0,0.0,0.0,0.0,0.0,9.81,333.25,-3.63,4.81,333.25,-3.63,4.81
1751943346058,1.0,0.0,0.0,0.0,0.0,0.0,9.81,333.25,-3.63,4.81,333.25,-3.63,4.81
1751943346158,1.0,0.0,0.0,0.0,0.0,0.0,9.81,333.25,-3.63,4.81,333.25,-3.63,4.81
1751943346276,1.0,0.0,0.0,0.0,0.0,0.0,9.81,333.25,-3.63,4.81,333.25,-3.63,4.81
1751943346476,1.0,0.0,0.0,0.0,0.0,0.0,9.81,333.25,-3.63,4.81,333.25,-3.63,4.81
1751943346794,1.0,0.0,0.0,0.0,0.0,0.0,9.81,333.25,-3.63,4.81,333.25,-3.63,4.81
1751943346894,1.0,0.0,0.0,0.0,0.0,0.0,9.81,333.25,-3.63,4.81,333.25,-3.63,4.81
1751943346994,1.0,0.0,0.0,0.0,0.0,0.0,9.81,333.25,-3.63,4.81,333.25,-3.63,4.81
1751943347111,1.0,0.0,0.0,0.0,0.0,0.0,9.81,333.25,-3.63,4.81,333.25,-3.63,4.81
1751943347212,1.0,0.0,0.0,0.0,0.0,0.0,9.81,333.25,-3.63,4.81,333.25,-3.63,4.81
1751943347429,1.0,0.0,0.0,0.0,0.0,0.0,9.81,333.25,-3.63,4.81,333.25,-3.63,4.81
1751943347632,1.0,0.0,0.0,0.0,0.0,0.0,9.81,333.25,-3.63,4.81,333.25,-3.63,4.81
1751943347749,1.0,0.0,0.0,0.0,0.0,0.0,9.81,333.25,-3.63,4.81,333.25,-3.63,4.81
1751943347850,1.0,0.0,0.0,0.0,0.0,0.0,9.81,333.25,-3.63,4.81,333.25,-3.63,4.81
1751943347949,1.0,0.0,0.0,0.0,0.0,0.0,9.81,333.25,-3.63,4.81,333.25,-3.63,4.81
1751943348066,1.0,0.0,0.0,0.0,0.0,0.0,9.81,333.25,-3.63,4.81,333.25,-3.63,4.81
1751943348167,1.0,0.0,0.0,0.0,0.0,0.0,9.81,333.25,-3.63,4.81,333.25,-3.63,4.81
1751943348285,1.0,0.0,0.0,0.0,0.0,0.0,9.81,333.25,-3.63,4.81,333.25,-3.63,4.81
1751943348385,1.0,0.0,0.0,0.0,0.0,0.0,9.81,333.25,-3.63,4.81,333.25,-3.63,4.81
1751943348585,1.0,0.0,0.0,0.0,0.0,0.0,9.81,333.25,-3.63,4.81,333.25,-3.63,4.81
1751943348702,1.0,0.0,0.0,0.0,0.0,0.0,9.81,333.25,-3.63,4.81,333.25,-3.63,4.81
1751943348802,1.0,0.0,0.0,0.0,0.0,0.0,9.81,333.25,-3.63,4.81,333.25,-3.63,4.81
1751943348919,1.0,0.0,0.0,0.0,0.0,0.0,9.81,333.25,-3.63,4.81,333.25,-3.63,4.81
1751943349019,1.0,0.0,0.0,0.0,0.0,0.0,9.81,333.25,-3.63,4.81,333.25,-3.63,4.81
1751943349119,1.0,0.0,0.0,0.0,0.0,0.0,9.81,333.25,-3.63,4.81,333.25,-3.63,4.81
1751943349237,1.0,0.0,0.0,0.0,0.0,0.0,9.81,333.25,-3.63,4.81,333.25,-3.63,4.81
1751943349338,1.0,0.0,0.0,0.0,0.0,0.0,9.81,333.25,-3.63,4.81,333.25,-3.63,4.81
1751943349455,1.0,0.0,0.0,0.0,0.0,0.0,9.81,333.25,-3.63,4.81,333.25,-3.63,4.81
1751943349555,1.0,0.0,0.0,0.0,0.0,0.0,9.81,333.25,-3.63,4.81,333.25,-3.63,4.81
1751943349671,1.0,0.0,0.0,0.0,0.0,0.0,9.81,333.25,-3.63,4.81,333.25,-3.63,4.81
1751943349771,1.0,0.0,0.0,0.0,0.0,0.0,9.81,333.25,-3.63,4.81,333.25,-3.63,4.81
1751943349871,1.0,0.0,0.0,0.0,0.0,0.0,9.81,333.25,-3.63,4.81,333.25,-3.63,4.81
1751943349988,1.0,0.0,0.0,0.0,0.0,0.0,9.81,333.25,-3.63,4.81,333.25,-3.63,4.81
1751943350188,1.0,0.0,0.0,0.0,0.0,0.0,9.81,333.25,-3.63,4.81,333.25,-3.63,4.81
1751943350307,1.0,0.0,0.0,0.0,0.0,0.0,9.81,333.25,-3.63,4.81,333.25,-3.63,4.81
1751943350408,1.0,0.0,0.0,0.0,0.0,0.0,9.81,333.25,-3.63,4.81,333.25,-3.63,4.81
1751943350510,1.0,0.0,0.0,0.0,0.0,0.0,9.81,333.25,-3.63,4.81,333.25,-3.63,4.81
1751943350613,1.0,0.0,0.0,0.0,0.0,0.0,9.81,333.25,-3.63,4.81,333.25,-3.63,4.81
1751943350732,1.0,0.0,0.0,0.0,0.0,0.0,9.81,333.25,-3.63,4.81,333.25,-3.63,4.81
1751943350835,1.0,0.0,0.0,0.0,0.0,0.0,9.81,333.25,-3.63,4.81,333.25,-3.63,4.81
1751943350938,1.0,0.0,0.0,0.0,0.0,0.0,9.81,333.25,-3.63,4.81,333.25,-3.63,4.81
1751943351042,1.0,0.0,0.0,0.0,0.0,0.0,9.81,333.25,-3.63,4.81,333.25,-3.63,4.81
1751943351158,1.0,0.0,0.0,0.0,0.0,0.0,9.81,333.25,-3.63,4.81,333.25,-3.63,4.81
1751943351267,1.0,0.0,0.0,0.0,0.0,0.0,9.81,333.25,-3.63,4.81,333.25,-3.63,4.81
1751943351470,1.0,0.0,0.0,0.0,0.0,0.0,9.81,333.25,-3.63,4.81,333.25,-3.63,4.81
1751943351571,1.0,0.0,0.0,0.0,0.0,0.0,9.81,333.25,-3.63,4.81,333.25,-3.63,4.81
1751943351690,1.0,0.0,0.0,0.0,0.0,0.0,9.81,333.25,-3.63,4.81,333.25,-3.63,4.81
1751943351792,1.0,0.0,0.0,0.0,0.0,0.0,9.81,333.25,-3.63,4.81,333.25,-3.63,4.81
1751943351997,1.0,0.0,0.0,0.0,0.0,0.0,9.81,333.25,-3.63,4.81,333.25,-3.63,4.81
1751943352099,1.0,0.0,0.0,0.0,0.0,0.0,9.81,333.25,-3.63,4.81,333.25,-3.63,4.81
1751943352206,1.0,0.0,0.0,0.0,0.0,0.0,9.81,333.25,-3.63,4.81,333.25,-3.63,4.81
1751943352310,1.0,0.0,0.0,0.0,0.0,0.0,9.81,333.25,-3.63,4.81,333.25,-3.63,4.81
1751943352426,1.0,0.0,0.0,0.0,0.0,0.0,9.81,333.25,-3.63,4.81,333.25,-3.63,4.81
1751943352728,1.0,0.0,0.0,0.0,0.0,0.0,9.81,333.25,-3.63,4.81,333.25,-3.63,4.81
1751943352844,1.0,0.0,0.0,0.0,0.0,0.0,9.81,333.25,-3.63,4.81,333.25,-3.63,4.81
1751943352945,1.0,0.0,0.0,0.0,0.0,0.0,9.81,333.25,-3.63,4.81,333.25,-3.63,4.81
1751943353045,1.0,0.0,0.0,0.0,0.0,0.0,9.81,333.25,-3.63,4.81,333.25,-3.63,4.81
1751943353263,1.0,0.0,0.0,0.0,0.0,0.0,9.81,333.25,-3.63,4.81,333.25,-3.63,4.81
1751943353364,1.0,0.0,0.0,0.0,0.0,0.0,9.81,333.25,-3.63,4.81,333.25,-3.63,4.81
1751943353464,1.0,0.0,0.0,0.0,0.0,0.0,9.81,333.25,-3.63,4.81,333.25,-3.63,4.81
1751943353581,1.0,0.0,0.0,0.0,0.0,0.0,9.81,333.25,-3.63,4.81,333.25,-3.63,4.81
1751943353681,1.0,0.0,0.0,0.0,0.0,0.0,9.81,333.25,-3.63,4.81,333.25,-3.63,4.81
1751943353797,1.0,0.0,0.0,0.0,0.0,0.0,9.81,333.25,-3.63,4.81,333.25,-3.63,4.81
1751943353998,1.0,0.0,0.0,0.0,0.0,0.0,9.81,333.25,-3.63,4.81,333.25,-3.63,4.81
1751943354098,1.0,0.0,0.0,0.0,0.0,0.0,9.81,333.25,-3.63,4.81,333.25,-3.63,4.81
1751943354215,1.0,0.0,0.0,0.0,0.0,0.0,9.81,333.25,-3.63,4.81,333.25,-3.63,4.81
1751943354316,1.0,0.0,0.0,0.0,0.0,0.0,9.81,333.25,-3.63,4.81,333.25,-3.63,4.81
1751943354417,1.0,0.0,0.0,0.0,0.0,0.0,9.81,333.25,-3.63,4.81,333.25,-3.63,4.81
1751943354634,1.0,0.0,0.0,0.0,0.0,0.0,9.81,333.25,-3.63,4.81,333.25,-3.63,4.81
1751943354751,1.0,0.0,0.0,0.0,0.0,0.0,9.81,333.25,-3.63,4.81,333.25,-3.63,4.81
1751943354851,1.0,0.0,0.0,0.0,0.0,0.0,9.81,333.25,-3.63,4.81,333.25,-3.63,4.81
1751943354951,1.0,0.0,0.0,0.0,0.0,0.0,9.81,333.25,-3.63,4.81,333.25,-3.63,4.81
1751943355068,1.0,0.0,0.0,0.0,0.0,0.0,9.81,333.25,-3.63,4.81,333.25,-3.63,4.81
1751943355168,1.0,0.0,0.0,0.0,0.0,0.0,9.81,333.25,-3.63,4.81,333.25,-3.63,4.81
1751943355286,1.0,0.0,0.0,0.0,0.0,0.0,9.81,333.25,-3.63,4.81,333.25,-3.63,4.81
1751943355387,1.0,0.0,0.0,0.0,0.0,0.0,9.81,333.25,-3.63,4.81,333.25,-3.63,4.81
1751943355503,1.0,0.0,0.0,0.0,0.0,0.0,9.81,333.25,-3.63,4.81,333.25,-3.63,4.81
1751943355604,1.0,0.0,0.0,0.0,0.0,0.0,9.81,333.25,-3.63,4.81,333.25,-3.63,4.81
1751943355704,1.0,0.0,0.0,0.0,0.0,0.0,9.81,333.25,-3.63,4.81,333.25,-3.63,4.81
1751943355821,1.0,0.0,0.0,0.0,0.0,0.0,9.81,333.25,-3.63,4.81,333.25,-3.63,4.81
1751943355921,1.0,0.0,0.0,0.0,0.0,0.0,9.81,333.25,-3.63,4.81,333.25,-3.63,4.81
1751943356021,1.0,0.0,0.0,0.0,0.0,0.0,9.81,333.25,-3.63,4.81,333.25,-3.63,4.81
1751943356340,1.0,0.0,0.0,0.0,0.0,0.0,9.81,333.25,-3.63,4.81,333.25,-3.63,4.81
1751943356540,1.0,0.0,0.0,0.0,0.0,0.0,9.81,333.25,-3.63,4.81,333.25,-3.63,4.81
1751943356757,1.0,0.0,0.0,0.0,0.0,0.0,9.81,333.25,-3.63,4.81,333.25,-3.63,4.81
1751943356866,1.0,0.0,0.0,0.0,0.0,0.0,9.81,333.25,-3.63,4.81,333.25,-3.63,4.81
1751943356974,1.0,0.0,0.0,0.0,0.0,0.0,9.81,333.25,-3.63,4.81,333.25,-3.63,4.81
1751943357074,1.0,0.0,0.0,0.0,0.0,0.0,9.81,333.25,-3.63,4.81,333.25,-3.63,4.81
1751943357175,1.0,0.0,0.0,0.0,0.0,0.0,9.81,333.25,-3.63,4.81,333.25,-3.63,4.81
1751943357292,1.0,0.0,0.0,0.0,0.0,0.0,9.81,333.25,-3.63,4.81,333.25,-3.63,4.81
1751943357393,1.0,0.0,0.0,0.0,0.0,0.0,9.81,333.25,-3.63,4.81,333.25,-3.63,4.81
1751943357509,1.0,0.0,0.0,0.0,0.0,0.0,9.81,333.25,-3.63,4.81,333.25,-3.63,4.81
1751943357609,1.0,0.0,0.0,0.0,0.0,0.0,9.81,333.25,-3.63,4.81,333.25,-3.63,4.81
1751943357709,1.0,0.0,0.0,0.0,0.0,0.0,9.81,333.25,-3.63,4.81,333.25,-3.63,4.81
1751943357828,1.0,0.0,0.0,0.0,0.0,0.0,9.81,333.25,-3.63,4.81,333.25,-3.63,4.81
1751943358029,1.0,0.0,0.0,0.0,0.0,0.0,9.81,333.25,-3.63,4.81,333.25,-3.63,4.81
1751943358129,1.0,0.0,0.0,0.0,0.0,0.0,9.81,333.25,-3.63,4.81,333.25,-3.63,4.81
1751943358347,1.0,0.0,0.0,0.0,0.0,0.0,9.81,333.25,-3.63,4.81,333.25,-3.63,4.81
1751943358447,1.0,0.0,0.0,0.0,0.0,0.0,9.81,333.25,-3.63,4.81,333.25,-3.63,4.81
1751943358547,1.0,0.0,0.0,0.0,0.0,0.0,9.81,333.25,-3.63,4.81,333.25,-3.63,4.81
1751943358664,1.0,0.0,0.0,0.0,0.0,0.0,9.81,333.25,-3.63,4.81,333.25,-3.63,4.81
1751943358764,1.0,0.0,0.0,0.0,0.0,0.0,9.81,333.25,-3.63,4.81,333.25,-3.63,4.81
1751943358865,1.0,0.0,0.0,0.0,0.0,0.0,9.81,333.25,-3.63,4.81,333.25,-3.63,4.81
1751943358982,1.0,0.0,0.0,0.0,0.0,0.0,9.81,333.25,-3.63,4.81,333.25,-3.63,4.81
1751943359081,1.0,0.0,0.0,0.0,0.0,0.0,9.81,333.25,-3.63,4.81,333.25,-3.63,4.81
1751943359198,1.0,0.0,0.0,0.0,0.0,0.0,9.81,333.25,-3.63,4.81,333.25,-3.63,4.81
1751943359298,1.0,0.0,0.0,0.0,0.0,0.0,9.81,333.25,-3.63,4.81,333.25,-3.63,4.81
1751943359514,1.0,0.0,0.0,0.0,0.0,0.0,9.81,333.25,-3.63,4.81,333.25,-3.63,4.81
1751943359611,1.0,0.0,0.0,0.0,0.0,0.0,9.81,333.25,-3.63,4.81,333.25,-3.63,4.81
1751943359721,1.0,0.0,0.0,0.0,0.0,0.0,9.81,333.25,-3.63,4.81,333.25,-3.63,4.81
1751943359832,1.0,0.0,0.0,0.0,0.0,0.0,9.81,333.25,-3.63,4.81,333.25,-3.63,4.81
1751943359941,1.0,0.0,0.0,0.0,0.0,0.0,9.81,333.25,-3.63,4.81,333.25,-3.63,4.81
1751943360051,1.0,0.0,0.0,0.0,0.0,0.0,9.81,333.25,-3.63,4.81,333.25,-3.63,4.81
1751943360159,1.0,0.0,0.0,0.0,0.0,0.0,9.81,333.25,-3.63,4.81,333.25,-3.63,4.81
1751943360253,1.0,0.0,0.0,0.0,0.0,0.0,9.81,333.25,-3.63,4.81,333.25,-3.63,4.81
1751943360370,1.0,0.0,0.0,0.0,0.0,0.0,9.81,333.25,-3.63,4.81,333.25,-3.63,4.81
1751943360563,1.0,0.0,0.0,0.0,0.0,0.0,9.81,333.25,-3.63,4.81,333.25,-3.63,4.81
1751943360675,1.0,0.0,0.0,0.0,0.0,0.0,9.81,333.25,-3.63,4.81,333.25,-3.63,4.81
1751943360785,1.0,0.0,0.0,0.0,0.0,0.0,9.81,333.25,-3.63,4.81,333.25,-3.63,4.81
1751943360879,1.0,0.0,0.0,0.0,0.0,0.0,9.81,333.25,-3.63,4.81,333.25,-3.63,4.81
1751943361098,1.0,0.0,0.0,0.0,0.0,0.0,9.81,333.25,-3.63,4.81,333.25,-3.63,4.81
1751943361207,1.0,0.0,0.0,0.0,0.0,0.0,9.81,333.25,-3.63,4.81,333.25,-3.63,4.81
1751943361307,1.0,0.0,0.0,0.0,0.0,0.0,9.81,333.25,-3.63,4.81,333.25,-3.63,4.81
1751943361405,1.0,0.0,0.0,0.0,0.0,0.0,9.81,333.25,-3.63,4.81,333.25,-3.63,4.81
1751943361518,1.0,0.0,0.0,0.0,0.0,0.0,9.81,333.25,-3.63,4.81,333.25,-3.63,4.81
1751943361629,1.0,0.0,0.0,0.0,0.0,0.0,9.81,333.25,-3.63,4.81,333.25,-3.63,4.81
1751943361834,1.0,0.0,0.0,0.0,0.0,0.0,9.81,333.25,-3.63,4.81,333.25,-3.63,4.81
1751943361943,1.0,0.0,0.0,0.0,0.0,0.0,9.81,333.25,-3.63,4.81,333.25,-3.63,4.81
1751943362053,1.0,0.0,0.0,0.0,0.0,0.0,9.81,333.25,-3.63,4.81,333.25,-3.63,4.81
1751943362177,1.0,0.0,0.0,0.0,0.0,0.0,9.81,333.25,-3.63,4.81,333.25,-3.63,4.81
1751943362363,1.0,0.0,0.0,0.0,0.0,0.0,9.81,333.25,-3.63,4.81,333.25,-3.63,4.81
1751943362466,1.0,0.0,0.0,0.0,0.0,0.0,9.81,333.25,-3.63,4.81,333.25,-3.63,4.81
1751943362586,1.0,0.0,0.0,0.0,0.0,0.0,9.81,333.25,-3.63,4.81,333.25,-3.63,4.81
1751943362781,1.0,0.0,0.0,0.0,0.0,0.0,9.81,333.25,-3.63,4.81,333.25,-3.63,4.81
1751943362889,1.0,0.0,0.0,0.0,0.0,0.0,9.81,333.25,-3.63,4.81,333.25,-3.63,4.81
1751943363011,1.0,0.0,0.0,0.0,0.0,0.0,9.81,333.25,-3.63,4.81,333.25,-3.63,4.81
1751943363117,1.0,0.0,0.0,0.0,0.0,0.0,9.81,333.25,-3.63,4.81,333.25,-3.63,4.81
1751943363222,1.0,0.0,0.0,0.0,0.0,0.0,9.81,333.25,-3.63,4.81,333.25,-3.63,4.81
1751943363323,1.0,0.0,0.0,0.0,0.0,0.0,9.81,333.25,-3.63,4.81,333.25,-3.63,4.81
1751943363427,1.0,0.0,0.0,0.0,0.0,0.0,9.81,333.25,-3.63,4.81,333.25,-3.63,4.81
1751943363546,1.0,0.0,0.0,0.0,0.0,0.0,9.81,333.25,-3.63,4.81,333.25,-3.63,4.81
1751943363648,1.0,0.0,0.0,0.0,0.0,0.0,9.81,333.25,-3.63,4.81,333.25,-3.63,4.81
1751943363751,1.0,0.0,0.0,0.0,0.0,0.0,9.81,333.25,-3.63,4.81,333.25,-3.63,4.81
1751943363853,1.0,0.0,0.0,0.0,0.0,0.0,9.81,333.25,-3.63,4.81,333.25,-3.63,4.81
1751943363974,1.0,0.0,0.0,0.0,0.0,0.0,9.81,333.25,-3.63,4.81,333.25,-3.63,4.81
1751943364076,1.0,0.0,0.0,0.0,0.0,0.0,9.81,333.25,-3.63,4.81,333.25,-3.63,4.81
1751943364183,1.0,0.0,0.0,0.0,0.0,0.0,9.81,333.25,-3.63,4.81,333.25,-3.63,4.81
1751943364285,1.0,0.0,0.0,0.0,0.0,0.0,9.81,333.25,-3.63,4.81,333.25,-3.63,4.81
1751943364386,1.0,0.0,0.0,0.0,0.0,0.0,9.81,333.25,-3.63,4.81,333.25,-3.63,4.81
1751943364502,1.0,0.0,0.0,0.0,0.0,0.0,9.81,333.25,-3.63,4.81,333.25,-3.63,4.81
1751943364603,1.0,0.0,0.0,0.0,0.0,0.0,9.81,333.25,-3.63,4.81,333.25,-3.63,4.81
1751943364719,1.0,0.0,0.0,0.0,0.0,0.0,9.81,333.25,-3.63,4.81,333.25,-3.63,4.81
1751943364820,1.0,0.0,0.0,0.0,0.0,0.0,9.81,333.25,-3.63,4.81,333.25,-3.63,4.81
1751943364920,1.0,0.0,0.0,0.0,0.0,0.0,9.81,333.25,-3.63,4.81,333.25,-3.63,4.81
1751943365136,1.0,0.0,0.0,0.0,0.0,0.0,9.81,333.25,-3.63,4.81,333.25,-3.63,4.81
1751943365237,1.0,0.0,0.0,0.0,0.0,0.0,9.81,333.25,-3.63,4.81,333.25,-3.63,4.81
1751943365338,1.0,0.0,0.0,0.0,0.0,0.0,9.81,333.25,-3.63,4.81,333.25,-3.63,4.81
1751943365455,1.0,0.0,0.0,0.0,0.0,0.0,9.81,333.25,-3.63,4.81,333.25,-3.63,4.81
1751943365555,1.0,0.0,0.0,0.0,0.0,0.0,9.81,333.25,-3.63,4.81,333.25,-3.63,4.81
1751943365673,1.0,0.0,0.0,0.0,0.0,0.0,9.81,333.25,-3.63,4.81,333.25,-3.63,4.81
1751943365874,1.0,0.0,0.0,0.0,0.0,0.0,9.81,333.25,-3.63,4.81,333.25,-3.63,4.81
1751943365975,1.0,0.0,0.0,0.0,0.0,0.0,9.81,333.25,-3.63,4.81,333.25,-3.63,4.81
1751943366092,1.0,0.0,0.0,0.0,0.0,0.0,9.81,333.25,-3.63,4.81,333.25,-3.63,4.81
1751943366192,1.0,0.0,0.0,0.0,0.0,0.0,9.81,333.25,-3.63,4.81,333.25,-3.63,4.81
1751943366294,1.0,0.0,0.0,0.0,0.0,0.0,9.81,333.25,-3.63,4.81,333.25,-3.63,4.81
1751943366410,1.0,0.0,0.0,0.0,0.0,0.0,9.81,333.25,-3.63,4.81,333.25,-3.63,4.81
1751943366511,1.0,0.0,0.0,0.0,0.0,0.0,9.81,333.25,-3.63,4.81,333.25,-3.63,4.81
1751943366627,1.0,0.0,0.0,0.0,0.0,0.0,9.81,333.25,-3.63,4.81,333.25,-3.63,4.81
1751943366727,1.0,0.0,0.0,0.0,0.0,0.0,9.81,333.25,-3.63,4.81,333.25,-3.63,4.81
1751943366932,1.0,0.0,0.0,0.0,0.0,0.0,9.81,333.25,-3.63,4.81,333.25,-3.63,4.81
1751943367032,1.0,0.0,0.0,0.0,0.0,0.0,9.81,333.25,-3.63,4.81,333.25,-3.63,4.81
1751943367149,1.0,0.0,0.0,0.0,0.0,0.0,9.81,333.25,-3.63,4.81,333.25,-3.63,4.81
1751943367249,1.0,0.0,0.0,0.0,0.0,0.0,9.81,333.25,-3.63,4.81,333.25,-3.63,4.81
1751943367367,1.0,0.0,0.0,0.0,0.0,0.0,9.81,333.25,-3.63,4.81,333.25,-3.63,4.81
1751943367568,1.0,0.0,0.0,0.0,0.0,0.0,9.81,333.25,-3.63,4.81,333.25,-3.63,4.81
1751943367668,1.0,0.0,0.0,0.0,0.0,0.0,9.81,333.25,-3.63,4.81,333.25,-3.63,4.81
1751943367777,1.0,0.0,0.0,0.0,0.0,0.0,9.81,333.25,-3.63,4.81,333.25,-3.63,4.81
1751943367893,1.0,0.0,0.0,0.0,0.0,0.0,9.81,333.25,-3.63,4.81,333.25,-3.63,4.81
1751943367993,1.0,0.0,0.0,0.0,0.0,0.0,9.81,333.25,-3.63,4.81,333.25,-3.63,4.81
1751943368204,1.0,0.0,0.0,0.0,0.0,0.0,9.81,333.25,-3.63,4.81,333.25,-3.63,4.81
1751943368294,1.0,0.0,0.0,0.0,0.0,0.0,9.81,333.25,-3.63,4.81,333.25,-3.63,4.81
1751943368416,1.0,0.0,0.0,0.0,0.0,0.0,9.81,333.25,-3.63,4.81,333.25,-3.63,4.81
1751943368517,1.0,0.0,0.0,0.0,0.0,0.0,9.81,333.25,-3.63,4.81,333.25,-3.63,4.81
1751943368634,1.0,0.0,0.0,0.0,0.0,0.0,9.81,333.25,-3.63,4.81,333.25,-3.63,4.81
1751943368734,1.0,0.0,0.0,0.0,0.0,0.0,9.81,333.25,-3.63,4.81,333.25,-3.63,4.81
1751943368834,1.0,0.0,0.0,0.0,0.0,0.0,9.81,333.25,-3.63,4.81,333.25,-3.63,4.81
1751943369152,1.0,0.0,0.0,0.0,0.0,0.0,9.81,333.25,-3.63,4.81,333.25,-3.63,4.81
1751943369255,1.0,0.0,0.0,0.0,0.0,0.0,9.81,333.25,-3.63,4.81,333.25,-3.63,4.81
1751943369472,1.0,0.0,0.0,0.0,0.0,0.0,9.81,333.25,-3.63,4.81,333.25,-3.63,4.81
1751943369671,1.0,0.0,0.0,0.0,0.0,0.0,9.81,333.25,-3.63,4.81,333.25,-3.63,4.81
1751943369972,1.0,0.0,0.0,0.0,0.0,0.0,9.81,333.25,-3.63,4.81,333.25,-3.63,4.81
1751943370088,1.0,0.0,0.0,0.0,0.0,0.0,9.81,333.25,-3.63,4.81,333.25,-3.63,4.81
1751943370289,1.0,0.0,0.0,0.0,0.0,0.0,9.81,333.25,-3.63,4.81,333.25,-3.63,4.81
1751943370390,1.0,0.0,0.0,0.0,0.0,0.0,9.81,333.25,-3.63,4.81,333.25,-3.63,4.81
1751943370507,1.0,0.0,0.0,0.0,0.0,0.0,9.81,333.25,-3.63,4.81,333.25,-3.63,4.81
1751943370807,1.0,0.0,0.0,0.0,0.0,0.0,9.81,333.25,-3.63,4.81,333.25,-3.63,4.81
1751943370924,1.0,0.0,0.0,0.0,0.0,0.0,9.81,333.25,-3.63,4.81,333.25,-3.63,4.81
1751943371024,1.0,0.0,0.0,0.0,0.0,0.0,9.81,333.25,-3.63,4.81,333.25,-3.63,4.81
1751943371125,1.0,0.0,0.0,0.0,0.0,0.0,9.81,333.25,-3.63,4.81,333.25,-3.63,4.81
1751943371242,1.0,0.0,0.0,0.0,0.0,0.0,9.81,333.25,-3.63,4.81,333.25,-3.63,4.81
1751943371344,1.0,0.0,0.0,0.0,0.0,0.0,9.81,333.25,-3.63,4.81,333.25,-3.63,4.81
1751943371444,1.0,0.0,0.0,0.0,0.0,0.0,9.81,333.25,-3.63,4.81,333.25,-3.63,4.81
1751943371558,1.0,0.0,0.0,0.0,0.0,0.0,9.81,333.25,-3.63,4.81,333.25,-3.63,4.81
1751943371677,1.0,0.0,0.0,0.0,0.0,0.0,9.81,333.25,-3.63,4.81,333.25,-3.63,4.81
1751943371877,1.0,0.0,0.0,0.0,0.0,0.0,9.81,333.25,-3.63,4.81,333.25,-3.63,4.81
1751943372094,1.0,0.0,0.0,0.0,0.0,0.0,9.81,333.25,-3.63,4.81,333.25,-3.63,4.81
1751943372194,1.0,0.0,0.0,0.0,0.0,0.0,9.81,333.25,-3.63,4.81,333.25,-3.63,4.81
1751943372295,1.0,0.0,0.0,0.0,0.0,0.0,9.81,333.25,-3.63,4.81,333.25,-3.63,4.81
1751943372396,1.0,0.0,0.0,0.0,0.0,0.0,9.81,333.25,-3.63,4.81,333.25,-3.63,4.81
1751943372513,1.0,0.0,0.0,0.0,0.0,0.0,9.81,333.25,-3.63,4.81,333.25,-3.63,4.81
1751943372713,1.0,0.0,0.0,0.0,0.0,0.0,9.81,333.25,-3.63,4.81,333.25,-3.63,4.81
1751943372830,1.0,0.0,0.0,0.0,0.0,0.0,9.81,333.25,-3.63,4.81,333.25,-3.63,4.81
1751943372930,1.0,0.0,0.0,0.0,0.0,0.0,9.81,333.25,-3.63,4.81,333.25,-3.63,4.81
1751943373233,1.0,0.0,0.0,0.0,0.0,0.0,9.81,333.25,-3.63,4.81,333.25,-3.63,4.81
1751943373334,1.0,0.0,0.0,0.0,0.0,0.0,9.81,333.25,-3.63,4.81,333.25,-3.63,4.81
1751943373452,1.0,0.0,0.0,0.0,0.0,0.0,9.81,333.25,-3.63,4.81,333.25,-3.63,4.81
1751943373553,1.0,0.0,0.0,0.0,0.0,0.0,9.81,333.25,-3.63,4.81,333.25,-3.63,4.81
1751943373654,1.0,0.0,0.0,0.0,0.0,0.0,9.81,333.25,-3.63,4.81,333.25,-3.63,4.81
1751943373772,1.0,0.0,0.0,0.0,0.0,0.0,9.81,333.25,-3.63,4.81,333.25,-3.63,4.81
1751943373874,1.0,0.0,0.0,0.0,0.0,0.0,9.81,333.25,-3.63,4.81,333.25,-3.63,4.81
1751943373993,1.0,0.0,0.0,0.0,0.0,0.0,9.81,333.25,-3.63,4.81,333.25,-3.63,4.81
1751943374095,1.0,0.0,0.0,0.0,0.0,0.0,9.81,333.25,-3.63,4.81,333.25,-3.63,4.81
1751943374197,1.0,0.0,0.0,0.0,0.0,0.0,9.81,333.25,-3.63,4.81,333.25,-3.63,4.81
1751943374299,1.0,0.0,0.0,0.0,0.0,0.0,9.81,333.25,-3.63,4.81,333.25,-3.63,4.81
1751943374419,1.0,0.0,0.0,0.0,0.0,0.0,9.81,333.25,-3.63,4.81,333.25,-3.63,4.81
1751943374519,1.0,0.0,0.0,0.0,0.0,0.0,9.81,333.25,-3.63,4.81,333.25,-3.63,4.81
1751943374619,1.0,0.0,0.0,0.0,0.0,0.0,9.81,333.25,-3.63,4.81,333.25,-3.63,4.81
1751943374736,1.0,0.0,0.0,0.0,0.0,0.0,9.81,333.25,-3.63,4.81,333.25,-3.63,4.81
1751943374836,1.0,0.0,0.0,0.0,0.0,0.0,9.81,333.25,-3.63,4.81,333.25,-3.63,4.81
1751943374953,1.0,0.0,0.0,0.0,0.0,0.0,9.81,333.25,-3.63,4.81,333.25,-3.63,4.81
1751943375053,1.0,0.0,0.0,0.0,0.0,0.0,9.81,333.25,-3.63,4.81,333.25,-3.63,4.81
1751943375153,1.0,0.0,0.0,0.0,0.0,0.0,9.81,333.25,-3.63,4.81,333.25,-3.63,4.81
1751943375286,1.0,0.0,0.0,0.0,0.0,0.0,9.81,333.25,-3.63,4.81,333.25,-3.63,4.81
1751943375372,1.0,0.0,0.0,0.0,0.0,0.0,9.81,333.25,-3.63,4.81,333.25,-3.63,4.81
1751943375488,1.0,0.0,0.0,0.0,0.0,0.0,9.81,333.25,-3.63,4.81,333.25,-3.63,4.81
1751943375589,1.0,0.0,0.0,0.0,0.0,0.0,9.81,333.25,-3.63,4.81,333.25,-3.63,4.81
1751943375705,1.0,0.0,0.0,0.0,0.0,0.0,9.81,333.25,-3.63,4.81,333.25,-3.63,4.81
1751943375805,1.0,0.0,0.0,0.0,0.0,0.0,9.81,333.25,-3.63,4.81,333.25,-3.63,4.81
1751943376105,1.0,0.0,0.0,0.0,0.0,0.0,9.81,333.25,-3.63,4.81,333.25,-3.63,4.81
1751943376222,1.0,0.0,0.0,0.0,0.0,0.0,9.81,333.25,-3.63,4.81,333.25,-3.63,4.81
1751943376424,1.0,0.0,0.0,0.0,0.0,0.0,9.81,333.25,-3.63,4.81,333.25,-3.63,4.81
1751943376540,1.0,0.0,0.0,0.0,0.0,0.0,9.81,333.25,-3.63,4.81,333.25,-3.63,4.81
1751943376641,1.0,0.0,0.0,0.0,0.0,0.0,9.81,333.25,-3.63,4.81,333.25,-3.63,4.81
1751943376743,1.0,0.0,0.0,0.0,0.0,0.0,9.81,333.25,-3.63,4.81,333.25,-3.63,4.81
1751943376845,1.0,0.0,0.0,0.0,0.0,0.0,9.81,333.25,-3.63,4.81,333.25,-3.63,4.81
1751943376963,1.0,0.0,0.0,0.0,0.0,0.0,9.81,333.25,-3.63,4.81,333.25,-3.63,4.81
1751943377164,1.0,0.0,0.0,0.0,0.0,0.0,9.81,333.25,-3.63,4.81,333.25,-3.63,4.81
1751943377281,1.0,0.0,0.0,0.0,0.0,0.0,9.81,333.25,-3.63,4.81,333.25,-3.63,4.81
1751943377382,1.0,0.0,0.0,0.0,0.0,0.0,9.81,333.25,-3.63,4.81,333.25,-3.63,4.81
1751943377499,1.0,0.0,0.0,0.0,0.0,0.0,9.81,333.25,-3.63,4.81,333.25,-3.63,4.81
1751943377600,1.0,0.0,0.0,0.0,0.0,0.0,9.81,333.25,-3.63,4.81,333.25,-3.63,4.81
1751943377703,1.0,0.0,0.0,0.0,0.0,0.0,9.81,333.25,-3.63,4.81,333.25,-3.63,4.81
1751943377803,1.0,0.0,0.0,0.0,0.0,0.0,9.81,333.25,-3.63,4.81,333.25,-3.63,4.81
1751943378004,1.0,0.0,0.0,0.0,0.0,0.0,9.81,333.25,-3.63,4.81,333.25,-3.63,4.81
1751943378121,1.0,0.0,0.0,0.0,0.0,0.0,9.81,333.25,-3.63,4.81,333.25,-3.63,4.81
1751943378238,1.0,0.0,0.0,0.0,0.0,0.0,9.81,333.25,-3.63,4.81,333.25,-3.63,4.81
1751943378338,1.0,0.0,0.0,0.0,0.0,0.0,9.81,333.25,-3.63,4.81,333.25,-3.63,4.81
1751943378556,1.0,0.0,0.0,0.0,0.0,0.0,9.81,333.25,-3.63,4.81,333.25,-3.63,4.81
1751943378645,1.0,0.0,0.0,0.0,0.0,0.0,9.81,333.25,-3.63,4.81,333.25,-3.63,4.81
1751943378762,1.0,0.0,0.0,0.0,0.0,0.0,9.81,333.25,-3.63,4.81,333.25,-3.63,4.81
1751943378878,1.0,0.0,0.0,0.0,0.0,0.0,9.81,333.25,-3.63,4.81,333.25,-3.63,4.81
1751943378979,1.0,0.0,0.0,0.0,0.0,0.0,9.81,333.25,-3.63,4.81,333.25,-3.63,4.81
1751943379079,1.0,0.0,0.0,0.0,0.0,0.0,9.81,333.25,-3.63,4.81,333.25,-3.63,4.81
1751943379195,1.0,0.0,0.0,0.0,0.0,0.0,9.81,333.25,-3.63,4.81,333.25,-3.63,4.81
1751943379296,1.0,0.0,0.0,0.0,0.0,0.0,9.81,333.25,-3.63,4.81,333.25,-3.63,4.81
1751943379397,1.0,0.0,0.0,0.0,0.0,0.0,9.81,333.25,-3.63,4.81,333.25,-3.63,4.81
1751943379515,1.0,0.0,0.0,0.0,0.0,0.0,9.81,333.25,-3.63,4.81,333.25,-3.63,4.81
1751943379714,1.0,0.0,0.0,0.0,0.0,0.0,9.81,333.25,-3.63,4.81,333.25,-3.63,4.81
1751943379815,1.0,0.0,0.0,0.0,0.0,0.0,9.81,333.25,-3.63,4.81,333.25,-3.63,4.81
1751943379932,1.0,0.0,0.0,0.0,0.0,0.0,9.81,333.25,-3.63,4.81,333.25,-3.63,4.81
1751943380032,1.0,0.0,0.0,0.0,0.0,0.0,9.81,333.25,-3.63,4.81,333.25,-3.63,4.81
1751943380136,1.0,0.0,0.0,0.0,0.0,0.0,9.81,333.25,-3.63,4.81,333.25,-3.63,4.81
1751943380251,1.0,0.0,0.0,0.0,0.0,0.0,9.81,333.25,-3.63,4.81,333.25,-3.63,4.81
1751943380352,1.0,0.0,0.0,0.0,0.0,0.0,9.81,333.25,-3.63,4.81,333.25,-3.63,4.81
1751943380471,1.0,0.0,0.0,0.0,0.0,0.0,9.81,333.25,-3.63,4.81,333.25,-3.63,4.81
1751943380569,1.0,0.0,0.0,0.0,0.0,0.0,9.81,333.25,-3.63,4.81,333.25,-3.63,4.81
1751943380666,1.0,0.0,0.0,0.0,0.0,0.0,9.81,333.25,-3.63,4.81,333.25,-3.63,4.81
1751943380984,1.0,0.0,0.0,0.0,0.0,0.0,9.81,333.25,-3.63,4.81,333.25,-3.63,4.81
1751943381079,1.0,0.0,0.0,0.0,0.0,0.0,9.81,333.25,-3.63,4.81,333.25,-3.63,4.81
1751943381188,1.0,0.0,0.0,0.0,0.0,0.0,9.81,333.25,-3.63,4.81,333.25,-3.63,4.81
1751943381298,1.0,0.0,0.0,0.0,0.0,0.0,9.81,333.25,-3.63,4.81,333.25,-3.63,4.81
1751943381413,1.0,0.0,0.0,0.0,0.0,0.0,9.81,333.25,-3.63,4.81,333.25,-3.63,4.81
1751943381513,1.0,0.0,0.0,0.0,0.0,0.0,9.81,333.25,-3.63,4.81,333.25,-3.63,4.81
1751943381610,1.0,0.0,0.0,0.0,0.0,0.0,9.81,333.25,-3.63,4.81,333.25,-3.63,4.81
1751943381717,1.0,0.0,0.0,0.0,0.0,0.0,9.81,333.25,-3.63,4.81,333.25,-3.63,4.81
1751943381822,1.0,0.0,0.0,0.0,0.0,0.0,9.81,333.25,-3.63,4.81,333.25,-3.63,4.81
1751943382035,1.0,0.0,0.0,0.0,0.0,0.0,9.81,333.25,-3.63,4.81,333.25,-3.63,4.81
1751943382143,1.0,0.0,0.0,0.0,0.0,0.0,9.81,333.25,-3.63,4.81,333.25,-3.63,4.81
1751943382263,1.0,0.0,0.0,0.0,0.0,0.0,9.81,333.25,-3.63,4.81,333.25,-3.63,4.81
1751943382365,1.0,0.0,0.0,0.0,0.0,0.0,9.81,333.25,-3.63,4.81,333.25,-3.63,4.81
1751943382467,1.0,0.0,0.0,0.0,0.0,0.0,9.81,333.25,-3.63,4.81,333.25,-3.63,4.81
1751943382567,1.0,0.0,0.0,0.0,0.0,0.0,9.81,333.25,-3.63,4.81,333.25,-3.63,4.81
1751943382684,1.0,0.0,0.0,0.0,0.0,0.0,9.81,333.25,-3.63,4.81,333.25,-3.63,4.81
1751943382784,1.0,0.0,0.0,0.0,0.0,0.0,9.81,333.25,-3.63,4.81,333.25,-3.63,4.81
1751943382901,1.0,0.0,0.0,0.0,0.0,0.0,9.81,333.25,-3.63,4.81,333.25,-3.63,4.81
1751943383001,1.0,0.0,0.0,0.0,0.0,0.0,9.81,333.25,-3.63,4.81,333.25,-3.63,4.81
1751943383102,1.0,0.0,0.0,0.0,0.0,0.0,9.81,333.25,-3.63,4.81,333.25,-3.63,4.81
1751943383218,1.0,0.0,0.0,0.0,0.0,0.0,9.81,333.25,-3.63,4.81,333.25,-3.63,4.81
1751943383318,1.0,0.0,0.0,0.0,0.0,0.0,9.81,333.25,-3.63,4.81,333.25,-3.63,4.81
1751943383418,1.0,0.0,0.0,0.0,0.0,0.0,9.81,333.25,-3.63,4.81,333.25,-3.63,4.81
1751943383536,1.0,0.0,0.0,0.0,0.0,0.0,9.81,333.25,-3.63,4.81,333.25,-3.63,4.81
1751943383636,1.0,0.0,0.0,0.0,0.0,0.0,9.81,333.25,-3.63,4.81,333.25,-3.63,4.81
1751943383753,1.0,0.0,0.0,0.0,0.0,0.0,9.81,333.25,-3.63,4.81,333.25,-3.63,4.81
1751943383853,1.0,0.0,0.0,0.0,0.0,0.0,9.81,333.25,-3.63,4.81,333.25,-3.63,4.81
1751943383970,1.0,0.0,0.0,0.0,0.0,0.0,9.81,333.25,-3.63,4.81,333.25,-3.63,4.81
1751943384070,1.0,0.0,0.0,0.0,0.0,0.0,9.81,333.25,-3.63,4.81,333.25,-3.63,4.81
1751943384171,1.0,0.0,0.0,0.0,0.0,0.0,9.81,333.25,-3.63,4.81,333.25,-3.63,4.81
1751943384287,1.0,0.0,0.0,0.0,0.0,0.0,9.81,333.25,-3.63,4.81,333.25,-3.63,4.81
1751943384489,1.0,0.0,0.0,0.0,0.0,0.0,9.81,333.25,-3.63,4.81,333.25,-3.63,4.81
1751943384606,1.0,0.0,0.0,0.0,0.0,0.0,9.81,333.25,-3.63,4.81,333.25,-3.63,4.81
1751943384706,1.0,0.0,0.0,0.0,0.0,0.0,9.81,333.25,-3.63,4.81,333.25,-3.63,4.81
1751943384806,1.0,0.0,0.0,0.0,0.0,0.0,9.81,333.25,-3.63,4.81,333.25,-3.63,4.81
1751943384923,1.0,0.0,0.0,0.0,0.0,0.0,9.81,333.25,-3.63,4.81,333.25,-3.63,4.81
1751943385023,1.0,0.0,0.0,0.0,0.0,0.0,9.81,333.25,-3.63,4.81,333.25,-3.63,4.81
1751943385123,1.0,0.0,0.0,0.0,0.0,0.0,9.81,333.25,-3.63,4.81,333.25,-3.63,4.81
1751943385240,1.0,0.0,0.0,0.0,0.0,0.0,9.81,333.25,-3.63,4.81,333.25,-3.63,4.81
1751943385440,1.0,0.0,0.0,0.0,0.0,0.0,9.81,333.25,-3.63,4.81,333.25,-3.63,4.81
1751943385750,1.0,0.0,0.0,0.0,0.0,0.0,9.81,333.25,-3.63,4.81,333.25,-3.63,4.81
1751943385860,1.0,0.0,0.0,0.0,0.0,0.0,9.81,333.25,-3.63,4.81,333.25,-3.63,4.81
1751943385969,1.0,0.0,0.0,0.0,0.0,0.0,9.81,333.25,-3.63,4.81,333.25,-3.63,4.81
1751943386169,1.0,0.0,0.0,0.0,0.0,0.0,9.81,333.25,-3.63,4.81,333.25,-3.63,4.81
1751943386277,1.0,0.0,0.0,0.0,0.0,0.0,9.81,333.25,-3.63,4.81,333.25,-3.63,4.81
1751943386384,1.0,0.0,0.0,0.0,0.0,0.0,9.81,333.25,-3.63,4.81,333.25,-3.63,4.81
1751943386581,1.0,0.0,0.0,0.0,0.0,0.0,9.81,333.25,-3.63,4.81,333.25,-3.63,4.81
1751943386703,1.0,0.0,0.0,0.0,0.0,0.0,9.81,333.25,-3.63,4.81,333.25,-3.63,4.81
1751943386808,1.0,0.0,0.0,0.0,0.0,0.0,9.81,333.25,-3.63,4.81,333.25,-3.63,4.81
1751943386912,1.0,0.0,0.0,0.0,0.0,0.0,9.81,333.25,-3.63,4.81,333.25,-3.63,4.81
1751943387015,1.0,0.0,0.0,0.0,0.0,0.0,9.81,333.25,-3.63,4.81,333.25,-3.63,4.81
1751943387131,1.0,0.0,0.0,0.0,0.0,0.0,9.81,333.25,-3.63,4.81,333.25,-3.63,4.81
1751943387339,1.0,0.0,0.0,0.0,0.0,0.0,9.81,333.25,-3.63,4.81,333.25,-3.63,4.81
1751943387439,1.0,0.0,0.0,0.0,0.0,0.0,9.81,333.25,-3.63,4.81,333.25,-3.63,4.81
1751943387556,1.0,0.0,0.0,0.0,0.0,0.0,9.81,333.25,-3.63,4.81,333.25,-3.63,4.81
1751943387656,1.0,0.0,0.0,0.0,0.0,0.0,9.81,333.25,-3.63,4.81,333.25,-3.63,4.81
1751943387874,1.0,0.0,0.0,0.0,0.0,0.0,9.81,333.25,-3.63,4.81,333.25,-3.63,4.81
1751943387974,1.0,0.0,0.0,0.0,0.0,0.0,9.81,333.25,-3.63,4.81,333.25,-3.63,4.81
1751943388074,1.0,0.0,0.0,0.0,0.0,0.0,9.81,333.25,-3.63,4.81,333.25,-3.63,4.81
1751943388191,1.0,0.0,0.0,0.0,0.0,0.0,9.81,333.25,-3.63,4.81,333.25,-3.63,4.81
1751943388409,1.0,0.0,0.0,0.0,0.0,0.0,9.81,333.25,-3.63,4.81,333.25,-3.63,4.81
1751943388709,1.0,0.0,0.0,0.0,0.0,0.0,9.81,333.25,-3.63,4.81,333.25,-3.63,4.81
1751943388926,1.0,0.0,0.0,0.0,0.0,0.0,9.81,333.25,-3.63,4.81,333.25,-3.63,4.81
1751943389026,1.0,0.0,0.0,0.0,0.0,0.0,9.81,333.25,-3.63,4.81,333.25,-3.63,4.81
1751943389127,1.0,0.0,0.0,0.0,0.0,0.0,9.81,333.25,-3.63,4.81,333.25,-3.63,4.81
1751943389243,1.0,0.0,0.0,0.0,0.0,0.0,9.81,333.25,-3.63,4.81,333.25,-3.63,4.81
1751943389345,1.0,0.0,0.0,0.0,0.0,0.0,9.81,333.25,-3.63,4.81,333.25,-3.63,4.81
1751943389461,1.0,0.0,0.0,0.0,0.0,0.0,9.81,333.25,-3.63,4.81,333.25,-3.63,4.81
1751943389562,1.0,0.0,0.0,0.0,0.0,0.0,9.81,333.25,-3.63,4.81,333.25,-3.63,4.81
1751943389662,1.0,0.0,0.0,0.0,0.0,0.0,9.81,333.25,-3.63,4.81,333.25,-3.63,4.81
1751943389778,1.0,0.0,0.0,0.0,0.0,0.0,9.81,333.25,-3.63,4.81,333.25,-3.63,4.81
1751943389979,1.0,0.0,0.0,0.0,0.0,0.0,9.81,333.19,-3.63,4.81,333.19,-3.63,4.81
1751943390079,1.0,0.0,0.0,0.0,0.0,0.0,9.81,333.19,-3.63,4.81,333.19,-3.63,4.81
1751943390196,1.0,0.0,0.0,0.0,0.0,0.0,9.81,333.19,-3.63,4.88,333.19,-3.63,4.88
1751943390296,1.0,0.0,0.0,0.0,0.0,0.0,9.81,332.94,-3.63,4.88,332.94,-3.63,4.88
1751943390398,1.0,0.0,0.0,0.0,0.0,0.0,9.81,333.0,-3.63,4.81,333.0,-3.63,4.81
1751943390512,1.0,0.0,0.0,0.0,0.0,0.0,9.81,333.0,-3.63,4.81,333.0,-3.63,4.81
1751943390624,1.0,0.0,0.0,0.0,0.0,0.0,9.81,332.94,-3.63,4.81,332.94,-3.63,4.81
1751943390735,1.0,0.0,0.0,0.0,0.0,0.0,9.81,333.0,-3.63,4.81,333.0,-3.63,4.81
1751943390830,1.0,0.0,0.0,0.0,0.0,0.0,9.81,333.0,-3.63,4.81,333.0,-3.63,4.81
1751943390940,1.0,0.0,0.0,0.0,0.0,0.0,9.81,333.0,-3.63,4.81,333.0,-3.63,4.81
1751943391049,1.0,0.0,0.0,0.0,0.0,0.0,9.81,333.0,-3.63,4.81,333.0,-3.63,4.81
1751943391352,1.0,0.0,0.0,0.0,0.0,0.0,9.81,332.94,-3.63,4.81,332.94,-3.63,4.81
1751943391469,1.0,0.0,0.0,0.0,0.0,0.0,9.81,332.94,-3.63,4.81,332.94,-3.63,4.81
1751943391769,1.0,0.0,0.0,0.0,0.0,0.0,9.81,332.69,-3.69,4.88,332.69,-3.69,4.88
1751943391869,1.0,0.0,0.0,0.0,0.0,0.0,9.81,332.69,-3.69,4.88,332.69,-3.69,4.88
1751943392086,1.0,0.0,0.0,0.0,0.0,0.0,9.81,332.69,-3.69,4.88,332.69,-3.69,4.88
1751943392186,1.0,0.0,0.0,0.0,0.0,0.0,9.81,332.69,-3.69,4.88,332.69,-3.69,4.88
1751943392305,1.0,0.0,0.0,0.0,0.0,0.0,9.81,332.69,-3.69,4.88,332.69,-3.69,4.88
1751943392605,1.0,0.0,0.0,0.0,0.0,0.0,9.81,332.69,-3.69,4.88,332.69,-3.69,4.88
1751943392705,1.0,0.0,0.0,0.0,0.0,0.0,9.81,332.69,-3.69,4.88,332.69,-3.69,4.88
1751943392822,1.0,0.0,0.0,0.0,0.0,0.0,9.81,332.69,-3.69,4.88,332.69,-3.69,4.88
1751943392923,1.0,0.0,0.0,0.0,0.0,0.0,9.81,332.69,-3.69,4.88,332.69,-3.69,4.88
1751943393039,1.0,0.0,0.0,0.0,0.0,0.0,9.81,332.69,-3.69,4.88,332.69,-3.69,4.88
1751943393140,1.0,0.0,0.0,0.0,0.0,0.0,9.81,332.69,-3.69,4.88,332.69,-3.69,4.88
1751943393341,1.0,0.0,0.0,0.0,0.0,0.0,9.81,332.69,-3.69,4.88,332.69,-3.69,4.88
1751943393458,1.0,0.0,0.0,0.0,0.0,0.0,9.81,332.69,-3.69,4.88,332.69,-3.69,4.88
1751943393558,1.0,0.0,0.0,0.0,0.0,0.0,9.81,332.69,-3.69,4.88,332.69,-3.69,4.88
1751943393658,1.0,0.0,0.0,0.0,0.0,0.0,9.81,332.69,-3.69,4.88,332.69,-3.69,4.88
1751943393775,1.0,0.0,0.0,0.0,0.0,0.0,9.81,332.69,-3.69,4.88,332.69,-3.69,4.88
1751943393875,1.0,0.0,0.0,0.0,0.0,0.0,9.81,332.69,-3.69,4.88,332.69,-3.69,4.88
1751943393975,1.0,0.0,0.0,0.0,0.0,0.0,9.81,332.69,-3.69,4.88,332.69,-3.69,4.88
1751943394092,1.0,0.0,0.0,0.0,0.0,0.0,9.81,332.69,-3.69,4.88,332.69,-3.69,4.88
1751943394192,1.0,0.0,0.0,0.0,0.0,0.0,9.81,332.69,-3.69,4.88,332.69,-3.69,4.88
1751943394310,1.0,0.0,0.0,0.0,0.0,0.0,9.81,332.69,-3.69,4.88,332.69,-3.69,4.88
1751943394510,1.0,0.0,0.0,0.0,0.0,0.0,9.81,332.69,-3.69,4.88,332.69,-3.69,4.88
1751943394611,1.0,0.0,0.0,0.0,0.0,0.0,9.81,332.69,-3.69,4.88,332.69,-3.69,4.88
1751943394727,1.0,0.0,0.0,0.0,0.0,0.0,9.81,332.69,-3.69,4.88,332.69,-3.69,4.88
1751943394828,1.0,0.0,0.0,0.0,0.0,0.0,9.81,332.69,-3.69,4.88,332.69,-3.69,4.88
1751943394944,1.0,0.0,0.0,0.0,0.0,0.0,9.81,332.69,-3.69,4.88,332.69,-3.69,4.88
1751943395045,1.0,0.0,0.0,0.0,0.0,0.0,9.81,332.69,-3.69,4.88,332.69,-3.69,4.88
1751943395262,1.0,0.0,0.0,0.0,0.0,0.0,9.81,332.69,-3.69,4.88,332.69,-3.69,4.88
1751943395363,1.0,0.0,0.0,0.0,0.0,0.0,9.81,332.69,-3.69,4.88,332.69,-3.69,4.88
1751943395463,1.0,0.0,0.0,0.0,0.0,0.0,9.81,332.69,-3.69,4.88,332.69,-3.69,4.88
1751943395580,1.0,0.0,0.0,0.0,0.0,0.0,9.81,332.69,-3.69,4.88,332.69,-3.69,4.88
1751943395680,1.0,0.0,0.0,0.0,0.0,0.0,9.81,332.69,-3.69,4.88,332.69,-3.69,4.88
1751943395797,1.0,0.0,0.0,0.0,0.0,0.0,9.81,332.69,-3.69,4.88,332.69,-3.69,4.88
1751943395896,1.0,0.0,0.0,0.0,0.0,0.0,9.81,332.69,-3.69,4.88,332.69,-3.69,4.88
1751943395996,1.0,0.0,0.0,0.0,0.0,0.0,9.81,332.69,-3.69,4.88,332.69,-3.69,4.88
1751943396113,1.0,0.0,0.0,0.0,0.0,0.0,9.81,332.69,-3.69,4.88,332.69,-3.69,4.88
1751943396213,1.0,0.0,0.0,0.0,0.0,0.0,9.81,332.69,-3.69,4.88,332.69,-3.69,4.88
1751943396315,1.0,0.0,0.0,0.0,0.0,0.0,9.81,332.69,-3.69,4.88,332.69,-3.69,4.88
1751943396431,1.0,0.0,0.0,0.0,0.0,0.0,9.81,332.69,-3.69,4.88,332.69,-3.69,4.88
1751943396531,1.0,0.0,0.0,0.0,0.0,0.0,9.81,332.69,-3.69,4.88,332.69,-3.69,4.88
1751943396648,1.0,0.0,0.0,0.0,0.0,0.0,9.81,332.69,-3.69,4.88,332.69,-3.69,4.88
1751943396748,1.0,0.0,0.0,0.0,0.0,0.0,9.81,332.69,-3.69,4.88,332.69,-3.69,4.88
1751943397049,1.0,0.0,0.0,0.0,0.0,0.0,9.81,332.69,-3.69,4.88,332.69,-3.69,4.88
1751943397166,1.0,0.0,0.0,0.0,0.0,0.0,9.81,332.69,-3.69,4.88,332.69,-3.69,4.88
1751943397383,1.0,0.0,0.0,0.0,0.0,0.0,9.81,332.69,-3.69,4.88,332.69,-3.69,4.88
1751943397572,1.0,0.0,0.0,0.0,0.0,0.0,9.81,332.69,-3.69,4.88,332.69,-3.69,4.88
1751943397891,1.0,0.0,0.0,0.0,0.0,0.0,9.81,332.69,-3.69,4.88,332.69,-3.69,4.88
1751943397991,1.0,0.0,0.0,0.0,0.0,0.0,9.81,332.69,-3.69,4.88,332.69,-3.69,4.88
1751943398208,1.0,0.0,0.0,0.0,0.0,0.0,9.81,332.69,-3.69,4.88,332.69,-3.69,4.88
1751943398309,1.0,0.0,0.0,0.0,0.0,0.0,9.81,332.69,-3.69,4.88,332.69,-3.69,4.88
1751943398409,1.0,0.0,0.0,0.0,0.0,0.0,9.81,332.69,-3.69,4.88,332.69,-3.69,4.88
1751943398726,1.0,0.0,0.0,0.0,0.0,0.0,9.81,332.69,-3.69,4.88,332.69,-3.69,4.88
1751943398827,1.0,0.0,0.0,0.0,0.0,0.0,9.81,332.69,-3.69,4.88,332.69,-3.69,4.88
1751943398943,1.0,0.0,0.0,0.0,0.0,0.0,9.81,332.69,-3.69,4.88,332.69,-3.69,4.88
1751943399044,1.0,0.0,0.0,0.0,0.0,0.0,9.81,332.69,-3.69,4.88,332.69,-3.69,4.88
1751943399160,1.0,0.0,0.0,0.0,0.0,0.0,9.81,332.69,-3.69,4.88,332.69,-3.69,4.88
1751943399260,1.0,0.0,0.0,0.0,0.0,0.0,9.81,332.69,-3.69,4.88,332.69,-3.69,4.88
1751943399362,1.0,0.0,0.0,0.0,0.0,0.0,9.81,332.69,-3.69,4.88,332.69,-3.69,4.88
1751943399479,1.0,0.0,0.0,0.0,0.0,0.0,9.81,332.69,-3.69,4.88,332.69,-3.69,4.88
1751943399579,1.0,0.0,0.0,0.0,0.0,0.0,9.81,332.69,-3.69,4.88,332.69,-3.69,4.88
1751943399697,1.0,0.0,0.0,0.0,0.0,0.0,9.81,332.69,-3.69,4.88,332.69,-3.69,4.88
1751943399861,1.0,0.0,0.0,0.0,0.0,0.0,9.81,332.69,-3.69,4.88,332.69,-3.69,4.88
1751943399911,1.0,0.0,0.0,0.0,0.0,0.0,9.81,332.69,-3.69,4.88,332.69,-3.69,4.88
1751943400012,1.0,0.0,0.0,0.0,0.0,0.0,9.81,332.69,-3.69,4.88,332.69,-3.69,4.88
1751943400129,1.0,0.0,0.0,0.0,0.0,0.0,9.81,332.69,-3.69,4.88,332.69,-3.69,4.88
1751943400229,1.0,0.0,0.0,0.0,0.0,0.0,9.81,332.69,-3.69,4.88,332.69,-3.69,4.88
1751943400330,1.0,0.0,0.0,0.0,0.0,0.0,9.81,332.69,-3.69,4.88,332.69,-3.69,4.88
1751943400545,1.0,0.0,0.0,0.0,0.0,0.0,9.81,332.69,-3.69,4.88,332.69,-3.69,4.88
1751943400641,1.0,0.0,0.0,0.0,0.0,0.0,9.81,332.69,-3.69,4.88,332.69,-3.69,4.88
1751943400753,1.0,0.0,0.0,0.0,0.0,0.0,9.81,332.69,-3.69,4.88,332.69,-3.69,4.88
1751943400958,1.0,0.0,0.0,0.0,0.0,0.0,9.81,332.69,-3.69,4.88,332.69,-3.69,4.88
1751943401069,1.0,0.0,0.0,0.0,0.0,0.0,9.81,332.69,-3.69,4.88,332.69,-3.69,4.88
1751943401193,1.0,0.0,0.0,0.0,0.0,0.0,9.81,332.69,-3.69,4.88,332.69,-3.69,4.88
1751943401287,1.0,0.0,0.0,0.0,0.0,0.0,9.81,332.69,-3.69,4.88,332.69,-3.69,4.88
1751943401388,1.0,0.0,0.0,0.0,0.0,0.0,9.81,332.69,-3.69,4.88,332.69,-3.69,4.88
1751943401502,1.0,0.0,0.0,0.0,0.0,0.0,9.81,332.69,-3.69,4.88,332.69,-3.69,4.88
1751943401614,1.0,0.0,0.0,0.0,0.0,0.0,9.81,332.69,-3.69,4.88,332.69,-3.69,4.88
1751943401725,1.0,0.0,0.0,0.0,0.0,0.0,9.81,332.69,-3.69,4.88,332.69,-3.69,4.88
1751943401834,1.0,0.0,0.0,0.0,0.0,0.0,9.81,332.69,-3.69,4.88,332.69,-3.69,4.88
1751943402036,1.0,0.0,0.0,0.0,0.0,0.0,9.81,332.69,-3.69,4.88,332.69,-3.69,4.88
1751943402254,1.0,0.0,0.0,0.0,0.0,0.0,9.81,332.69,-3.69,4.88,332.69,-3.69,4.88
1751943402355,1.0,0.0,0.0,0.0,0.0,0.0,9.81,332.69,-3.69,4.88,332.69,-3.69,4.88
1751943402456,1.0,0.0,0.0,0.0,0.0,0.0,9.81,332.69,-3.69,4.88,332.69,-3.69,4.88
1751943402573,1.0,0.0,0.0,0.0,0.0,0.0,9.81,332.69,-3.69,4.88,332.69,-3.69,4.88
1751943402674,1.0,0.0,0.0,0.0,0.0,0.0,9.81,332.69,-3.69,4.88,332.69,-3.69,4.88
1751943402776,1.0,0.0,0.0,0.0,0.0,0.0,9.81,332.69,-3.69,4.88,332.69,-3.69,4.88
1751943402894,1.0,0.0,0.0,0.0,0.0,0.0,9.81,332.69,-3.69,4.88,332.69,-3.69,4.88
1751943402996,1.0,0.0,0.0,0.0,0.0,0.0,9.81,332.69,-3.69,4.88,332.69,-3.69,4.88
1751943403098,1.0,0.0,0.0,0.0,0.0,0.0,9.81,332.69,-3.69,4.88,332.69,-3.69,4.88
1751943403302,1.0,0.0,0.0,0.0,0.0,0.0,9.81,332.69,-3.69,4.88,332.69,-3.69,4.88
1751943403419,1.0,0.0,0.0,0.0,0.0,0.0,9.81,332.69,-3.69,4.88,332.69,-3.69,4.88
1751943403521,1.0,0.0,0.0,0.0,0.0,0.0,9.81,332.69,-3.69,4.88,332.69,-3.69,4.88
1751943403621,1.0,0.0,0.0,0.0,0.0,0.0,9.81,332.69,-3.69,4.88,332.69,-3.69,4.88
1751943403938,1.0,0.0,0.0,0.0,0.0,0.0,9.81,332.69,-3.69,4.88,332.69,-3.69,4.88
1751943404038,1.0,0.0,0.0,0.0,0.0,0.0,9.81,332.69,-3.69,4.88,332.69,-3.69,4.88
1751943404138,1.0,0.0,0.0,0.0,0.0,0.0,9.81,332.69,-3.69,4.88,332.69,-3.69,4.88
1751943404255,1.0,0.0,0.0,0.0,0.0,0.0,9.81,332.69,-3.69,4.88,332.69,-3.69,4.88
1751943404358,1.0,0.0,0.0,0.0,0.0,0.0,9.81,332.69,-3.69,4.88,332.69,-3.69,4.88
1751943404472,1.0,0.0,0.0,0.0,0.0,0.0,9.81,332.69,-3.69,4.88,332.69,-3.69,4.88
1751943404568,1.0,0.0,0.0,0.0,0.0,0.0,9.81,332.69,-3.69,4.88,332.69,-3.69,4.88
1751943404774,1.0,0.0,0.0,0.0,0.0,0.0,9.81,332.69,-3.69,4.88,332.69,-3.69,4.88
1751943404884,1.0,0.0,0.0,0.0,0.0,0.0,9.81,332.69,-3.69,4.88,332.69,-3.69,4.88
1751943404994,1.0,0.0,0.0,0.0,0.0,0.0,9.81,332.69,-3.69,4.94,332.69,-3.69,4.94
1751943405103,1.0,0.0,0.0,0.0,0.0,0.0,9.81,332.44,-3.56,5.19,332.44,-3.56,5.19
1751943405211,1.0,0.0,0.0,0.0,0.0,0.0,9.81,331.63,-3.63,5.0,331.63,-3.63,5.0
1751943405312,1.0,0.0,0.0,0.0,0.0,0.0,9.81,331.56,-3.63,5.0,331.56,-3.63,5.0
1751943405426,1.0,0.0,0.0,0.0,0.0,0.0,9.81,331.56,-3.63,5.0,331.56,-3.63,5.0
1751943405538,1.0,0.0,0.0,0.0,0.0,0.0,9.81,330.56,-3.5,5.19,330.56,-3.5,5.19
1751943405742,1.0,0.0,0.0,0.0,0.0,0.0,9.81,329.94,-3.5,4.94,329.94,-3.5,4.94
1751943405852,1.0,0.0,0.0,0.0,0.0,0.0,9.81,330.75,-3.19,5.25,330.75,-3.19,5.25
1751943405960,1.0,0.0,0.0,0.0,0.0,0.0,9.81,330.38,-3.31,5.0,330.38,-3.31,5.0
1751943406069,1.0,0.0,0.0,0.0,0.0,0.0,9.81,330.5,-3.44,4.56,330.5,-3.44,4.56
1751943406176,1.0,0.0,0.0,0.0,0.0,0.0,9.81,331.5,-3.56,4.0,331.5,-3.56,4.0
1751943406278,1.0,0.0,0.0,0.0,0.0,0.0,9.81,331.56,-3.56,3.81,331.56,-3.56,3.81
1751943406483,1.0,0.0,0.0,0.0,0.0,0.0,9.81,331.38,-3.38,4.63,331.38,-3.38,4.63
1751943406604,1.0,0.0,0.0,0.0,0.0,0.0,9.81,330.38,-3.31,4.81,330.38,-3.31,4.81
1751943406707,1.0,0.0,0.0,0.0,0.0,0.0,9.81,329.88,-3.31,4.75,329.88,-3.31,4.75
1751943406815,1.0,0.0,0.0,0.0,0.0,0.0,9.81,329.56,-3.31,4.81,329.56,-3.31,4.81
1751943406923,1.0,0.0,0.0,0.0,0.0,0.0,9.81,329.0,-3.31,4.81,329.0,-3.31,4.81
1751943407028,1.0,0.0,0.0,0.0,0.0,0.0,9.81,328.5,-3.31,4.81,328.5,-3.31,4.81
1751943407133,1.0,0.0,0.0,0.0,0.0,0.0,9.81,328.19,-3.31,4.81,328.19,-3.31,4.81
1751943407240,1.0,0.0,0.0,0.0,0.0,0.0,9.81,328.13,-3.31,4.81,328.13,-3.31,4.81
1751943407340,1.0,0.0,0.0,0.0,0.0,0.0,9.81,327.88,-3.31,4.81,327.88,-3.31,4.81
1751943407557,1.0,0.0,0.0,0.0,0.0,0.0,9.81,327.44,-3.31,4.81,327.44,-3.31,4.81
1751943407658,1.0,0.0,0.0,0.0,0.0,0.0,9.81,327.44,-3.31,4.81,327.44,-3.31,4.81
1751943407758,1.0,0.0,0.0,0.0,0.0,0.0,9.81,327.38,-3.31,4.81,327.38,-3.31,4.81
1751943407874,1.0,0.0,0.0,0.0,0.0,0.0,9.81,327.31,-3.31,4.81,327.31,-3.31,4.81
1751943408075,1.0,0.0,0.0,0.0,0.0,0.0,9.81,327.19,-3.31,4.81,327.19,-3.31,4.81
1751943408192,1.0,0.0,0.0,0.0,0.0,0.0,9.81,327.06,-3.31,4.81,327.06,-3.31,4.81
1751943408293,1.0,0.0,0.0,0.0,0.0,0.0,9.81,327.06,-3.31,4.81,327.06,-3.31,4.81
1751943408394,1.0,0.0,0.0,0.0,0.0,0.0,9.81,327.0,-3.31,4.81,327.0,-3.31,4.81
1751943408511,1.0,0.0,0.0,0.0,0.0,0.0,9.81,326.94,-3.31,4.81,326.94,-3.31,4.81
1751943408610,1.0,0.0,0.0,0.0,0.0,0.0,9.81,326.94,-3.31,4.81,326.94,-3.31,4.81
1751943408728,1.0,0.0,0.0,0.0,0.0,0.0,9.81,326.94,-3.31,4.81,326.94,-3.31,4.81
1751943408828,1.0,0.0,0.0,0.0,0.0,0.0,9.81,326.94,-3.31,4.81,326.94,-3.31,4.81
1751943408928,1.0,0.0,0.0,0.0,0.0,0.0,9.81,326.94,-3.31,4.81,326.94,-3.31,4.81
1751943409028,1.0,0.0,0.0,0.0,0.0,0.0,9.81,326.94,-3.31,4.81,326.94,-3.31,4.81
1751943409145,1.0,0.0,0.0,0.0,0.0,0.0,9.81,326.94,-3.31,4.81,326.94,-3.31,4.81
1751943409247,1.0,0.0,0.0,0.0,0.0,0.0,9.81,326.94,-3.31,4.81,326.94,-3.31,4.81
1751943409363,1.0,0.0,0.0,0.0,0.0,0.0,9.81,326.94,-3.31,4.81,326.94,-3.31,4.81
1751943409464,1.0,0.0,0.0,0.0,0.0,0.0,9.81,326.94,-3.31,4.81,326.94,-3.31,4.81
1751943409664,1.0,0.0,0.0,0.0,0.0,0.0,9.81,326.94,-3.31,4.81,326.94,-3.31,4.81
1751943409781,1.0,0.0,0.0,0.0,0.0,0.0,9.81,326.94,-3.31,4.81,326.94,-3.31,4.81
1751943409881,1.0,0.0,0.0,0.0,0.0,0.0,9.81,326.94,-3.31,4.81,326.94,-3.31,4.81
1751943410081,1.0,0.0,0.0,0.0,0.0,0.0,9.81,326.94,-3.31,4.81,326.94,-3.31,4.81
1751943410198,1.0,0.0,0.0,0.0,0.0,0.0,9.81,326.94,-3.31,4.81,326.94,-3.31,4.81
1751943410300,1.0,0.0,0.0,0.0,0.0,0.0,9.81,326.94,-3.31,4.81,326.94,-3.31,4.81
1751943410409,1.0,0.0,0.0,0.0,0.0,0.0,9.81,326.94,-3.31,4.81,326.94,-3.31,4.81
1751943410517,1.0,0.0,0.0,0.0,0.0,0.0,9.81,326.94,-3.31,4.81,326.94,-3.31,4.81
1751943410617,1.0,0.0,0.0,0.0,0.0,0.0,9.81,326.94,-3.31,4.81,326.94,-3.31,4.81
1751943410735,1.0,0.0,0.0,0.0,0.0,0.0,9.81,326.94,-3.31,4.81,326.94,-3.31,4.81
1751943410836,1.0,0.0,0.0,0.0,0.0,0.0,9.81,326.94,-3.31,4.81,326.94,-3.31,4.81
1751943410953,1.0,0.0,0.0,0.0,0.0,0.0,9.81,326.94,-3.31,4.81,326.94,-3.31,4.81
1751943411053,1.0,0.0,0.0,0.0,0.0,0.0,9.81,326.94,-3.31,4.81,326.94,-3.31,4.81
1751943411154,1.0,0.0,0.0,0.0,0.0,0.0,9.81,326.94,-3.31,4.81,326.94,-3.31,4.81
1751943411272,1.0,0.0,0.0,0.0,0.0,0.0,9.81,326.94,-3.31,4.81,326.94,-3.31,4.81
1751943411372,1.0,0.0,0.0,0.0,0.0,0.0,9.81,326.94,-3.31,4.81,326.94,-3.31,4.81
1751943411489,1.0,0.0,0.0,0.0,0.0,0.0,9.81,326.94,-3.31,4.81,326.94,-3.31,4.81
1751943411589,1.0,0.0,0.0,0.0,0.0,0.0,9.81,326.94,-3.31,4.81,326.94,-3.31,4.81
1751943441078,1.0,0.0,0.0,0.0,0.0,0.0,9.81,0.0,0.0,0.0,0.0,0.0,0.0
1751943441178,1.0,0.0,0.0,0.0,0.0,0.0,9.81,346.13,-1.81,1.88,346.13,-1.81,1.88
1751943441295,1.0,0.0,0.0,0.0,0.0,0.0,9.81,334.06,-3.63,1.63,334.06,-3.63,1.63
1751943441397,1.0,0.0,0.0,0.0,0.0,0.0,9.81,321.94,-4.13,0.06,321.94,-4.13,0.06
1751943441497,1.0,0.0,0.0,0.0,0.0,0.0,9.81,314.44,-5.06,1.44,314.44,-5.06,1.44
1751943441613,1.0,0.0,0.0,0.0,0.0,0.0,9.81,312.19,2.75,18.25,312.19,2.75,18.25
1751943441729,1.0,0.0,0.0,0.0,0.0,0.0,9.81,313.0,4.19,18.25,313.0,4.19,18.25
1751943441830,1.0,0.0,0.0,0.0,0.0,0.0,9.81,320.38,10.0,15.19,320.38,10.0,15.19
1751943442030,1.0,0.0,0.0,0.0,0.0,0.0,9.81,338.31,20.0,9.63,338.31,20.0,9.63
1751943442147,1.0,0.0,0.0,0.0,0.0,0.0,9.81,349.5,25.19,5.5,349.5,25.19,5.5
1751943442247,1.0,0.0,0.0,0.0,0.0,0.0,9.81,0.38,29.38,-0.56,0.38,29.38,-0.56
1751943442347,1.0,0.0,0.0,0.0,0.0,0.0,9.81,11.81,32.25,-7.13,11.81,32.25,-7.13
1751943442565,1.0,0.0,0.0,0.0,0.0,0.0,9.81,26.44,34.0,-15.75,26.44,34.0,-15.75
1751943442665,1.0,0.0,0.0,0.0,0.0,0.0,9.81,27.38,34.94,-15.81,27.38,34.94,-15.81
1751943442765,1.0,0.0,0.0,0.0,0.0,0.0,9.81,27.31,37.25,-13.25,27.31,37.25,-13.25
1751943442882,1.0,0.0,0.0,0.0,0.0,0.0,9.81,29.81,38.0,-13.63,29.81,38.0,-13.63
1751943442982,1.0,0.0,0.0,0.0,0.0,0.0,9.81,30.31,38.06,-14.06,30.31,38.06,-14.06
1751943443099,1.0,0.0,0.0,0.0,0.0,0.0,9.81,30.75,36.75,-14.75,30.75,36.75,-14.75
1751943443199,1.0,0.0,0.0,0.0,0.0,0.0,9.81,31.0,34.38,-14.5,31.0,34.38,-14.5
1751943443316,1.0,0.0,0.0,0.0,0.0,0.0,9.81,30.81,33.06,-14.5,30.81,33.06,-14.5
1751943443416,1.0,0.0,0.0,0.0,0.0,0.0,9.81,30.56,32.44,-14.19,30.56,32.44,-14.19
1751943443518,1.0,0.0,0.0,0.0,0.0,0.0,9.81,30.81,31.63,-14.13,30.81,31.63,-14.13
1751943443636,1.0,0.0,0.0,0.0,0.0,0.0,9.81,30.88,30.69,-14.31,30.88,30.69,-14.31
1751943443737,1.0,0.0,0.0,0.0,0.0,0.0,9.81,30.38,29.81,-14.5,30.38,29.81,-14.5
1751943443839,1.0,0.0,0.0,0.0,0.0,0.0,9.81,29.19,28.94,-14.0,29.19,28.94,-14.0
1751943443958,1.0,0.0,0.0,0.0,0.0,0.0,9.81,27.63,29.13,-13.25,27.63,29.13,-13.25
1751943444055,1.0,0.0,0.0,0.0,0.0,0.0,9.81,25.25,28.25,-12.06,25.25,28.25,-12.06
1751943444163,1.0,0.0,0.0,0.0,0.0,0.0,9.81,22.56,27.56,-11.0,22.56,27.56,-11.0
1751943444282,1.0,0.0,0.0,0.0,0.0,0.0,9.81,19.19,26.31,-9.5,19.19,26.31,-9.5
1751943444385,1.0,0.0,0.0,0.0,0.0,0.0,9.81,15.75,25.69,-8.5,15.75,25.69,-8.5
1751943444488,1.0,0.0,0.0,0.0,0.0,0.0,9.81,12.38,24.25,-7.19,12.38,24.25,-7.19
1751943444605,1.0,0.0,0.0,0.0,0.0,0.0,9.81,9.13,23.25,-5.5,9.13,23.25,-5.5
1751943444705,1.0,0.0,0.0,0.0,0.0,0.0,9.81,5.88,22.75,-3.94,5.88,22.75,-3.94
1751943444905,1.0,0.0,0.0,0.0,0.0,0.0,9.81,1.5,21.25,-2.19,1.5,21.25,-2.19
1751943445022,1.0,0.0,0.0,0.0,0.0,0.0,9.81,359.69,20.19,-2.0,359.69,20.19,-2.0
1751943445122,1.0,0.0,0.0,0.0,0.0,0.0,9.81,358.25,18.81,-1.56,358.25,18.81,-1.56
1751943445223,1.0,0.0,0.0,0.0,0.0,0.0,9.81,356.44,17.63,-1.38,356.44,17.63,-1.38
1751943445339,1.0,0.0,0.0,0.0,0.0,0.0,9.81,354.75,16.5,-1.38,354.75,16.5,-1.38
1751943445541,1.0,0.0,0.0,0.0,0.0,0.0,9.81,351.31,14.38,0.06,351.31,14.38,0.06
1751943445657,1.0,0.0,0.0,0.0,0.0,0.0,9.81,349.13,13.44,1.25,349.13,13.44,1.25
1751943445757,1.0,0.0,0.0,0.0,0.0,0.0,9.81,347.25,11.5,3.38,347.25,11.5,3.38
1751943445858,1.0,0.0,0.0,0.0,0.0,0.0,9.81,344.56,9.63,5.81,344.56,9.63,5.81
1751943445975,1.0,0.0,0.0,0.0,0.0,0.0,9.81,343.0,8.13,6.94,343.0,8.13,6.94
1751943446075,1.0,0.0,0.0,0.0,0.0,0.0,9.81,340.75,7.13,7.88,340.75,7.13,7.88
1751943446183,1.0,0.0,0.0,0.0,0.0,0.0,9.81,338.88,6.31,8.56,338.88,6.31,8.56
1751943446291,1.0,0.0,0.0,0.0,0.0,0.0,9.81,336.94,4.88,9.75,336.94,4.88,9.75
1751943446408,1.0,0.0,0.0,0.0,0.0,0.0,9.81,334.81,3.75,11.06,334.81,3.75,11.06
1751943446510,1.0,0.0,0.0,0.0,0.0,0.0,9.81,333.5,4.0,11.13,333.5,4.0,11.13
1751943446610,1.0,0.0,0.0,0.0,0.0,0.0,9.81,331.5,4.13,11.13,331.5,4.13,11.13
1751943446828,1.0,0.0,0.0,0.0,0.0,0.0,9.81,328.44,4.38,11.63,328.44,4.38,11.63
1751943446945,1.0,0.0,0.0,0.0,0.0,0.0,9.81,326.31,4.81,11.81,326.31,4.81,11.81
1751943447046,1.0,0.0,0.0,0.0,0.0,0.0,9.81,324.56,5.44,11.81,324.56,5.44,11.81
1751943447163,1.0,0.0,0.0,0.0,0.0,0.0,9.81,323.0,5.56,12.13,323.0,5.56,12.13
1751943447264,1.0,0.0,0.0,0.0,0.0,0.0,9.81,321.06,6.13,12.0,321.06,6.13,12.0
1751943447466,1.0,0.0,0.0,0.0,0.0,0.0,9.81,317.44,6.81,12.19,317.44,6.81,12.19
1751943447566,1.0,0.0,0.0,0.0,0.0,0.0,9.81,315.44,7.13,12.38,315.44,7.13,12.38
1751943447683,1.0,0.0,0.0,0.0,0.0,0.0,9.81,311.81,8.0,12.75,311.81,8.0,12.75
1751943447783,1.0,0.0,0.0,0.0,0.0,0.0,9.81,309.13,8.25,13.38,309.13,8.25,13.38
1751943447900,1.0,0.0,0.0,0.0,0.0,0.0,9.81,305.94,8.69,14.13,305.94,8.69,14.13
1751943448117,1.0,0.0,0.0,0.0,0.0,0.0,9.81,300.38,10.06,14.69,300.38,10.06,14.69
1751943448217,1.0,0.0,0.0,0.0,0.0,0.0,9.81,297.69,10.94,15.19,297.69,10.94,15.19
1751943448318,1.0,0.0,0.0,0.0,0.0,0.0,9.81,294.19,10.88,17.0,294.19,10.88,17.0
1751943448535,1.0,0.0,0.0,0.0,0.0,0.0,9.81,285.94,10.06,17.44,285.94,10.06,17.44
1751943448636,1.0,0.0,0.0,0.0,0.0,0.0,9.81,283.31,10.81,17.94,283.31,10.81,17.94
1751943448753,1.0,0.0,0.0,0.0,0.0,0.0,9.81,281.19,12.06,18.44,281.19,12.06,18.44
1751943448853,1.0,0.0,0.0,0.0,0.0,0.0,9.81,279.31,14.0,17.81,279.31,14.0,17.81
1751943448969,1.0,0.0,0.0,0.0,0.0,0.0,9.81,276.06,15.69,17.44,276.06,15.69,17.44
1751943449170,1.0,0.0,0.0,0.0,0.0,0.0,9.81,270.69,19.31,17.0,270.69,19.31,17.0
1751943449270,1.0,0.0,0.0,0.0,0.0,0.0,9.81,269.69,19.69,17.44,269.69,19.69,17.44
1751943449386,1.0,0.0,0.0,0.0,0.0,0.0,9.81,270.06,19.19,17.44,270.06,19.19,17.44
1751943449488,1.0,0.0,0.0,0.0,0.0,0.0,9.81,272.63,18.38,16.81,272.63,18.38,16.81
1751943449605,1.0,0.0,0.0,0.0,0.0,0.0,9.81,277.13,18.44,14.75,277.13,18.44,14.75
1751943449705,1.0,0.0,0.0,0.0,0.0,0.0,9.81,283.25,18.44,12.31,283.25,18.44,12.31
1751943449805,1.0,0.0,0.0,0.0,0.0,0.0,9.81,291.38,18.38,10.19,291.38,18.38,10.19
1751943449922,1.0,0.0,0.0,0.0,0.0,0.0,9.81,302.5,18.5,7.69,302.5,18.5,7.69
1751943450022,1.0,0.0,0.0,0.0,0.0,0.0,9.81,315.38,18.5,6.5,315.38,18.5,6.5
1751943450141,1.0,0.0,0.0,0.0,0.0,0.0,9.81,334.0,20.44,7.19,334.0,20.44,7.19
1751943450241,1.0,0.0,0.0,0.0,0.0,0.0,9.81,349.0,22.19,7.31,349.0,22.19,7.31
1751943450358,1.0,0.0,0.0,0.0,0.0,0.0,9.81,355.5,23.19,6.56,355.5,23.19,6.56
1751943450458,1.0,0.0,0.0,0.0,0.0,0.0,9.81,351.94,22.44,8.06,351.94,22.44,8.06
1751943450559,1.0,0.0,0.0,0.0,0.0,0.0,9.81,337.75,17.56,12.13,337.75,17.56,12.13
1751943450781,1.0,0.0,0.0,0.0,0.0,0.0,9.81,308.81,10.25,12.63,308.81,10.25,12.63
1751943450884,1.0,0.0,0.0,0.0,0.0,0.0,9.81,301.31,9.13,13.13,301.31,9.13,13.13
1751943450988,1.0,0.0,0.0,0.0,0.0,0.0,9.81,300.38,9.63,12.31,300.38,9.63,12.31
1751943451092,1.0,0.0,0.0,0.0,0.0,0.0,9.81,305.38,10.25,11.94,305.38,10.25,11.94
1751943451199,1.0,0.0,0.0,0.0,0.0,0.0,9.81,312.38,11.19,10.75,312.38,11.19,10.75
1751943451306,1.0,0.0,0.0,0.0,0.0,0.0,9.81,318.38,11.5,9.88,318.38,11.5,9.88
1751943451410,1.0,0.0,0.0,0.0,0.0,0.0,9.81,324.81,12.44,8.5,324.81,12.44,8.5
1751943451519,1.0,0.0,0.0,0.0,0.0,0.0,9.81,329.69,13.19,7.63,329.69,13.19,7.63
1751943451619,1.0,0.0,0.0,0.0,0.0,0.0,9.81,331.81,12.81,6.88,331.81,12.81,6.88
1751943451736,1.0,0.0,0.0,0.0,0.0,0.0,9.81,328.38,11.63,8.25,328.38,11.63,8.25
1751943451836,1.0,0.0,0.0,0.0,0.0,0.0,9.81,319.56,8.0,11.88,319.56,8.0,11.88
1751943451953,1.0,0.0,0.0,0.0,0.0,0.0,9.81,310.0,5.63,13.5,310.0,5.63,13.5
1751943452053,1.0,0.0,0.0,0.0,0.0,0.0,9.81,300.88,3.25,13.63,300.88,3.25,13.63
1751943452153,1.0,0.0,0.0,0.0,0.0,0.0,9.81,295.5,1.56,12.5,295.5,1.56,12.5
1751943452270,1.0,0.0,0.0,0.0,0.0,0.0,9.81,295.56,1.06,7.88,295.56,1.06,7.88
1751943452470,1.0,0.0,0.0,0.0,0.0,0.0,9.81,310.38,3.06,4.25,310.38,3.06,4.25
1751943452588,1.0,0.0,0.0,0.0,0.0,0.0,9.81,318.0,3.0,6.19,318.0,3.0,6.19
1751943452688,1.0,0.0,0.0,0.0,0.0,0.0,9.81,324.19,4.13,6.38,324.19,4.13,6.38
1751943452804,1.0,0.0,0.0,0.0,0.0,0.0,9.81,323.94,3.25,7.44,323.94,3.25,7.44
1751943452905,1.0,0.0,0.0,0.0,0.0,0.0,9.81,320.44,3.56,8.94,320.44,3.56,8.94
1751943453006,1.0,0.0,0.0,0.0,0.0,0.0,9.81,319.31,5.63,8.38,319.31,5.63,8.38
1751943453122,1.0,0.0,0.0,0.0,0.0,0.0,9.81,319.13,6.44,8.56,319.13,6.44,8.56
1751943453222,1.0,0.0,0.0,0.0,0.0,0.0,9.81,312.56,5.13,14.38,312.56,5.13,14.38
1751943453339,1.0,0.0,0.0,0.0,0.0,0.0,9.81,313.88,5.44,13.31,313.88,5.44,13.31
1751943453439,1.0,0.0,0.0,0.0,0.0,0.0,9.81,317.25,5.06,10.94,317.25,5.06,10.94
1751943453557,1.0,0.0,0.0,0.0,0.0,0.0,9.81,319.56,8.56,11.88,319.56,8.56,11.88
1751943453757,1.0,0.0,0.0,0.0,0.0,0.0,9.81,322.94,20.44,9.5,322.94,20.44,9.5
1751943453857,1.0,0.0,0.0,0.0,0.0,0.0,9.81,323.63,34.81,9.5,323.63,34.81,9.5
1751943453974,1.0,0.0,0.0,0.0,0.0,0.0,9.81,321.56,55.25,20.13,321.56,55.25,20.13
1751943454074,1.0,0.0,0.0,0.0,0.0,0.0,9.81,312.81,72.63,78.75,312.81,72.63,78.75
1751943454175,1.0,0.0,0.0,0.0,0.0,0.0,9.81,302.13,61.44,136.0,302.13,61.44,136.0
1751943454392,1.0,0.0,0.0,0.0,0.0,0.0,9.81,338.63,34.38,162.19,338.63,34.38,162.19
1751943454492,1.0,0.0,0.0,0.0,0.0,0.0,9.81,337.75,25.13,165.63,337.75,25.13,165.63
1751943454611,1.0,0.0,0.0,0.0,0.0,0.0,9.81,337.31,19.13,166.25,337.31,19.13,166.25
1751943454708,1.0,0.0,0.0,0.0,0.0,0.0,9.81,337.56,12.44,166.88,337.56,12.44,166.88
1751943454820,1.0,0.0,0.0,0.0,0.0,0.0,9.81,337.56,6.69,165.94,337.56,6.69,165.94
1751943454915,1.0,0.0,0.0,0.0,0.0,0.0,9.81,337.5,5.94,164.69,337.5,5.94,164.69
1751943455025,1.0,0.0,0.0,0.0,0.0,0.0,9.81,338.38,6.44,164.75,338.38,6.44,164.75
1751943455134,1.0,0.0,0.0,0.0,0.0,0.0,9.81,339.25,34.06,166.56,339.25,34.06,166.56
1751943455242,1.0,0.0,0.0,0.0,0.0,0.0,9.81,326.56,61.0,166.56,326.56,61.0,166.56
1751943455351,1.0,0.0,0.0,0.0,0.0,0.0,9.81,327.75,80.44,111.31,327.75,80.44,111.31
1751943455459,1.0,0.0,0.0,0.0,0.0,0.0,9.81,330.19,60.63,19.81,330.19,60.63,19.81
1751943455560,1.0,0.0,0.0,0.0,0.0,0.0,9.81,335.94,34.44,6.25,335.94,34.44,6.25
1751943455662,1.0,0.0,0.0,0.0,0.0,0.0,9.81,337.25,19.63,6.94,337.25,19.63,6.94
1751943455781,1.0,0.0,0.0,0.0,0.0,0.0,9.81,336.88,17.81,6.94,336.88,17.81,6.94
1751943455888,1.0,0.0,0.0,0.0,0.0,0.0,9.81,338.31,14.75,4.38,338.31,14.75,4.38
1751943455994,1.0,0.0,0.0,0.0,0.0,0.0,9.81,350.56,14.13,1.13,350.56,14.13,1.13
1751943456101,1.0,0.0,0.0,0.0,0.0,0.0,9.81,25.06,11.81,-1.25,25.06,11.81,-1.25
1751943456206,1.0,0.0,0.0,0.0,0.0,0.0,9.81,57.06,9.19,2.69,57.06,9.19,2.69
1751943456310,1.0,0.0,0.0,0.0,0.0,0.0,9.81,66.56,2.94,4.56,66.56,2.94,4.56
1751943456414,1.0,0.0,0.0,0.0,0.0,0.0,9.81,70.0,1.5,5.06,70.0,1.5,5.06
1751943456521,1.0,0.0,0.0,0.0,0.0,0.0,9.81,71.81,5.5,3.56,71.81,5.5,3.56
1751943456638,1.0,0.0,0.0,0.0,0.0,0.0,9.81,67.94,38.56,-14.44,67.94,38.56,-14.44
1751943456738,1.0,0.0,0.0,0.0,0.0,0.0,9.81,62.56,61.06,-38.56,62.56,61.06,-38.56
1751943456855,1.0,0.0,0.0,0.0,0.0,0.0,9.81,56.06,74.31,-101.38,56.06,74.31,-101.38
1751943456955,1.0,0.0,0.0,0.0,0.0,0.0,9.81,45.5,75.81,-136.25,45.5,75.81,-136.25
1751943457072,1.0,0.0,0.0,0.0,0.0,0.0,9.81,43.69,74.5,-144.25,43.69,74.5,-144.25
1751943457172,1.0,0.0,0.0,0.0,0.0,0.0,9.81,43.75,74.06,-143.25,43.75,74.06,-143.25
1751943457272,1.0,0.0,0.0,0.0,0.0,0.0,9.81,46.25,79.63,-102.19,46.25,79.63,-102.19
1751943457388,1.0,0.0,0.0,0.0,0.0,0.0,9.81,47.13,57.25,-9.38,47.13,57.25,-9.38
1751943457488,1.0,0.0,0.0,0.0,0.0,0.0,9.81,49.75,10.88,4.31,49.75,10.88,4.31
1751943457704,1.0,0.0,0.0,0.0,0.0,0.0,9.81,43.31,-58.63,17.75,43.31,-58.63,17.75
1751943457800,1.0,0.0,0.0,0.0,0.0,0.0,9.81,39.63,-73.56,12.88,39.63,-73.56,12.88
1751943457938,1.0,0.0,0.0,0.0,0.0,0.0,9.81,39.25,-73.13,12.19,39.25,-73.13,12.19
1751943458022,1.0,0.0,0.0,0.0,0.0,0.0,9.81,38.75,-71.44,11.69,38.75,-71.44,11.69
1751943458121,1.0,0.0,0.0,0.0,0.0,0.0,9.81,37.94,-68.19,9.44,37.94,-68.19,9.44
1751943458234,1.0,0.0,0.0,0.0,0.0,0.0,9.81,38.94,-56.88,6.38,38.94,-56.88,6.38
1751943458331,1.0,0.0,0.0,0.0,0.0,0.0,9.81,39.56,-20.38,2.25,39.56,-20.38,2.25
1751943458441,1.0,0.0,0.0,0.0,0.0,0.0,9.81,40.56,15.81,-1.88,40.56,15.81,-1.88
1751943458556,1.0,0.0,0.0,0.0,0.0,0.0,9.81,39.5,48.75,-12.75,39.5,48.75,-12.75
1751943458656,1.0,0.0,0.0,0.0,0.0,0.0,9.81,34.38,66.06,-23.69,34.38,66.06,-23.69
1751943458773,1.0,0.0,0.0,0.0,0.0,0.0,9.81,28.63,81.31,-61.19,28.63,81.31,-61.19
1751943458873,1.0,0.0,0.0,0.0,0.0,0.0,9.81,21.88,82.75,-150.0,21.88,82.75,-150.0
1751943458973,1.0,0.0,0.0,0.0,0.0,0.0,9.81,10.75,76.31,174.31,10.75,76.31,174.31
1751943459090,1.0,0.0,0.0,0.0,0.0,0.0,9.81,355.0,68.69,158.88,355.0,68.69,158.88
1751943459190,1.0,0.0,0.0,0.0,0.0,0.0,9.81,339.5,66.0,146.56,339.5,66.0,146.56
1751943459307,1.0,0.0,0.0,0.0,0.0,0.0,9.81,322.25,68.0,128.94,322.25,68.0,128.94
1751943459407,1.0,0.0,0.0,0.0,0.0,0.0,9.81,318.44,78.75,113.63,318.44,78.75,113.63
1751943459525,1.0,0.0,0.0,0.0,0.0,0.0,9.81,320.19,85.44,3.75,320.19,85.44,3.75
1751943459626,1.0,0.0,0.0,0.0,0.0,0.0,9.81,327.5,79.44,-21.44,327.5,79.44,-21.44
1751943459726,1.0,0.0,0.0,0.0,0.0,0.0,9.81,334.63,69.5,-29.44,334.63,69.5,-29.44
1751943459843,1.0,0.0,0.0,0.0,0.0,0.0,9.81,341.69,58.81,-30.06,341.69,58.81,-30.06
1751943459943,1.0,0.0,0.0,0.0,0.0,0.0,9.81,342.19,55.06,-22.56,342.19,55.06,-22.56
1751943460060,1.0,0.0,0.0,0.0,0.0,0.0,9.81,337.44,52.69,-10.63,337.44,52.69,-10.63
1751943460160,1.0,0.0,0.0,0.0,0.0,0.0,9.81,328.0,54.69,7.06,328.0,54.69,7.06
1751943460277,1.0,0.0,0.0,0.0,0.0,0.0,9.81,318.56,50.13,27.88,318.56,50.13,27.88
1751943460377,1.0,0.0,0.0,0.0,0.0,0.0,9.81,302.88,45.69,38.94,302.88,45.69,38.94
1751943460477,1.0,0.0,0.0,0.0,0.0,0.0,9.81,280.63,35.31,48.75,280.63,35.31,48.75
1751943460595,1.0,0.0,0.0,0.0,0.0,0.0,9.81,256.5,20.44,53.0,256.5,20.44,53.0
1751943460695,1.0,0.0,0.0,0.0,0.0,0.0,9.81,245.31,7.88,50.94,245.31,7.88,50.94
1751943460812,1.0,0.0,0.0,0.0,0.0,0.0,9.81,243.75,3.0,49.5,243.75,3.0,49.5
1751943460912,1.0,0.0,0.0,0.0,0.0,0.0,9.81,247.19,0.63,50.38,247.19,0.63,50.38
1751943461029,1.0,0.0,0.0,0.0,0.0,0.0,9.81,247.94,-0.94,47.69,247.94,-0.94,47.69
1751943461129,1.0,0.0,0.0,0.0,0.0,0.0,9.81,248.38,-1.0,46.88,248.38,-1.0,46.88
1751943461229,1.0,0.0,0.0,0.0,0.0,0.0,9.81,256.5,2.19,46.13,256.5,2.19,46.13
1751943461346,1.0,0.0,0.0,0.0,0.0,0.0,9.81,260.81,5.81,43.0,260.81,5.81,43.0
1751943461446,1.0,0.0,0.0,0.0,0.0,0.0,9.81,269.75,11.5,37.0,269.75,11.5,37.0
1751943461565,1.0,0.0,0.0,0.0,0.0,0.0,9.81,286.88,22.38,27.5,286.88,22.38,27.5
1751943461665,1.0,0.0,0.0,0.0,0.0,0.0,9.81,314.25,35.94,13.31,314.25,35.94,13.31
1751943461781,1.0,0.0,0.0,0.0,0.0,0.0,9.81,353.69,37.06,-6.13,353.69,37.06,-6.13
1751943461882,1.0,0.0,0.0,0.0,0.0,0.0,9.81,29.69,17.94,-7.0,29.69,17.94,-7.0
1751943461982,1.0,0.0,0.0,0.0,0.0,0.0,9.81,53.25,2.38,-17.5,53.25,2.38,-17.5
1751943462095,1.0,0.0,0.0,0.0,0.0,0.0,9.81,66.63,-9.44,-8.31,66.63,-9.44,-8.31
1751943462199,1.0,0.0,0.0,0.0,0.0,0.0,9.81,72.06,-4.69,-2.38,72.06,-4.69,-2.38
1751943462316,1.0,0.0,0.0,0.0,0.0,0.0,9.81,77.25,-1.19,-1.31,77.25,-1.19,-1.31
1751943462416,1.0,0.0,0.0,0.0,0.0,0.0,9.81,76.38,6.44,-4.88,76.38,6.44,-4.88
1751943462534,1.0,0.0,0.0,0.0,0.0,0.0,9.81,73.06,5.06,-4.13,73.06,5.06,-4.13
1751943462634,1.0,0.0,0.0,0.0,0.0,0.0,9.81,69.0,7.81,1.06,69.0,7.81,1.06
1751943462735,1.0,0.0,0.0,0.0,0.0,0.0,9.81,65.81,5.94,9.44,65.81,5.94,9.44
1751943462835,1.0,0.0,0.0,0.0,0.0,0.0,9.81,65.5,4.38,0.69,65.5,4.38,0.69
1751943462951,1.0,0.0,0.0,0.0,0.0,0.0,9.81,63.06,0.0,0.56,63.06,0.0,0.56
1751943463052,1.0,0.0,0.0,0.0,0.0,0.0,9.81,59.38,0.0,0.56,59.38,0.0,0.56
1751943463169,1.0,0.0,0.0,0.0,0.0,0.0,9.81,58.5,0.25,0.69,58.5,0.25,0.69
1751943463268,1.0,0.0,0.0,0.0,0.0,0.0,9.81,58.56,0.44,0.75,58.56,0.44,0.75
1751943463385,1.0,0.0,0.0,0.0,0.0,0.0,9.81,58.63,0.56,0.81,58.63,0.56,0.81
1751943463485,1.0,0.0,0.0,0.0,0.0,0.0,9.81,58.56,0.69,0.88,58.56,0.69,0.88
1751943463587,1.0,0.0,0.0,0.0,0.0,0.0,9.81,58.56,0.81,0.88,58.56,0.81,0.88
1751943463703,1.0,0.0,0.0,0.0,0.0,0.0,9.81,58.5,0.88,0.94,58.5,0.88,0.94
1751943463804,1.0,0.0,0.0,0.0,0.0,0.0,9.81,58.38,0.94,0.94,58.38,0.94,0.94
1751943463921,1.0,0.0,0.0,0.0,0.0,0.0,9.81,58.38,1.0,1.0,58.38,1.0,1.0
1751943464021,1.0,0.0,0.0,0.0,0.0,0.0,9.81,58.13,1.06,1.0,58.13,1.06,1.0
1751943464221,1.0,0.0,0.0,0.0,0.0,0.0,9.81,58.06,1.19,1.06,58.06,1.19,1.06
1751943464338,1.0,0.0,0.0,0.0,0.0,0.0,9.81,57.94,1.25,1.06,57.94,1.25,1.06
1751943464439,1.0,0.0,0.0,0.0,0.0,0.0,9.81,57.94,1.25,1.06,57.94,1.25,1.06
1751943464556,1.0,0.0,0.0,0.0,0.0,0.0,9.81,58.0,1.31,1.06,58.0,1.31,1.06
1751943464657,1.0,0.0,0.0,0.0,0.0,0.0,9.81,58.06,1.31,1.13,58.06,1.31,1.13
1751943464774,1.0,0.0,0.0,0.0,0.0,0.0,9.81,58.13,1.38,1.13,58.13,1.38,1.13
1751943464874,1.0,0.0,0.0,0.0,0.0,0.0,9.81,58.13,1.38,1.13,58.13,1.38,1.13
1751943464974,1.0,0.0,0.0,0.0,0.0,0.0,9.81,57.94,1.44,1.13,57.94,1.44,1.13
1751943465091,1.0,0.0,0.0,0.0,0.0,0.0,9.81,57.88,1.44,1.13,57.88,1.44,1.13
1751943465190,1.0,0.0,0.0,0.0,0.0,0.0,9.81,57.88,1.44,1.13,57.88,1.44,1.13
1751943465308,1.0,0.0,0.0,0.0,0.0,0.0,9.81,57.88,1.44,1.13,57.88,1.44,1.13
1751943465408,1.0,0.0,0.0,0.0,0.0,0.0,9.81,57.88,1.44,1.13,57.88,1.44,1.13
1751943465524,1.0,0.0,0.0,0.0,0.0,0.0,9.81,57.88,1.44,1.13,57.88,1.44,1.13
1751943465625,1.0,0.0,0.0,0.0,0.0,0.0,9.81,57.88,1.44,1.13,57.88,1.44,1.13
1751943465726,1.0,0.0,0.0,0.0,0.0,0.0,9.81,57.88,1.44,1.13,57.88,1.44,1.13
1751943465844,1.0,0.0,0.0,0.0,0.0,0.0,9.81,57.88,1.44,1.13,57.88,1.44,1.13
1751943465946,1.0,0.0,0.0,0.0,0.0,0.0,9.81,57.88,1.44,1.13,57.88,1.44,1.13
1751943466047,1.0,0.0,0.0,0.0,0.0,0.0,9.81,57.88,1.44,1.13,57.88,1.44,1.13
1751943466149,1.0,0.0,0.0,0.0,0.0,0.0,9.81,57.88,1.44,1.13,57.88,1.44,1.13
1751943466268,1.0,0.0,0.0,0.0,0.0,0.0,9.81,57.88,1.44,1.13,57.88,1.44,1.13
1751943466370,1.0,0.0,0.0,0.0,0.0,0.0,9.81,57.88,1.44,1.13,57.88,1.44,1.13
1751943466472,1.0,0.0,0.0,0.0,0.0,0.0,9.81,57.88,1.44,1.13,57.88,1.44,1.13
1751943466591,1.0,0.0,0.0,0.0,0.0,0.0,9.81,57.88,1.44,1.13,57.88,1.44,1.13
1751943466691,1.0,0.0,0.0,0.0,0.0,0.0,9.81,57.88,1.44,1.13,57.88,1.44,1.13
1751943466792,1.0,0.0,0.0,0.0,0.0,0.0,9.81,57.88,1.44,1.13,57.88,1.44,1.13
1751943466908,1.0,0.0,0.0,0.0,0.0,0.0,9.81,58.5,1.44,1.13,58.5,1.44,1.13
1751943467008,1.0,0.0,0.0,0.0,0.0,0.0,9.81,58.75,1.44,1.13,58.75,1.44,1.13
1751943467125,1.0,0.0,0.0,0.0,0.0,0.0,9.81,58.63,1.44,1.13,58.63,1.44,1.13
1751943467225,1.0,0.0,0.0,0.0,0.0,0.0,9.81,58.88,1.38,1.19,58.88,1.38,1.19
1751943467326,1.0,0.0,0.0,0.0,0.0,0.0,9.81,58.88,1.5,0.75,58.88,1.5,0.75
1751943467443,1.0,0.0,0.0,0.0,0.0,0.0,9.81,58.44,2.44,-3.06,58.44,2.44,-3.06
1751943467543,1.0,0.0,0.0,0.0,0.0,0.0,9.81,57.0,4.56,-6.0,57.0,4.56,-6.0
1751943467644,1.0,0.0,0.0,0.0,0.0,0.0,9.81,55.63,8.31,-7.81,55.63,8.31,-7.81
1751943467763,1.0,0.0,0.0,0.0,0.0,0.0,9.81,52.13,13.13,-12.13,52.13,13.13,-12.13
1751943467864,1.0,0.0,0.0,0.0,0.0,0.0,9.81,46.13,13.69,-16.13,46.13,13.69,-16.13
1751943467984,1.0,0.0,0.0,0.0,0.0,0.0,9.81,42.19,13.56,-16.31,42.19,13.56,-16.31
1751943468087,1.0,0.0,0.0,0.0,0.0,0.0,9.81,38.63,14.75,-16.63,38.63,14.75,-16.63
1751943468190,1.0,0.0,0.0,0.0,0.0,0.0,9.81,36.0,16.25,-18.0,36.0,16.25,-18.0
1751943468293,1.0,0.0,0.0,0.0,0.0,0.0,9.81,32.19,15.56,-18.31,32.19,15.56,-18.31
1751943468499,1.0,0.0,0.0,0.0,0.0,0.0,9.81,29.06,13.5,-18.19,29.06,13.5,-18.19
1751943468605,1.0,0.0,0.0,0.0,0.0,0.0,9.81,28.25,11.69,-18.13,28.25,11.69,-18.13
1751943468722,1.0,0.0,0.0,0.0,0.0,0.0,9.81,26.38,10.63,-16.38,26.38,10.63,-16.38
1751943468822,1.0,0.0,0.0,0.0,0.0,0.0,9.81,24.06,7.5,-11.06,24.06,7.5,-11.06
1751943468939,1.0,0.0,0.0,0.0,0.0,0.0,9.81,21.56,6.19,-7.38,21.56,6.19,-7.38
1751943469039,1.0,0.0,0.0,0.0,0.0,0.0,9.81,20.44,4.75,-4.13,20.44,4.75,-4.13
1751943469150,1.0,0.0,0.0,0.0,0.0,0.0,9.81,20.94,6.06,-2.5,20.94,6.06,-2.5
1751943469244,1.0,0.0,0.0,0.0,0.0,0.0,9.81,20.56,6.56,-2.13,20.56,6.56,-2.13
1751943469362,1.0,0.0,0.0,0.0,0.0,0.0,9.81,21.94,6.19,-3.25,21.94,6.19,-3.25
1751943469682,1.0,0.0,0.0,0.0,0.0,0.0,9.81,41.63,4.94,3.63,41.63,4.94,3.63
1751943469782,1.0,0.0,0.0,0.0,0.0,0.0,9.81,46.38,2.56,3.0,46.38,2.56,3.0
1751943469899,1.0,0.0,0.0,0.0,0.0,0.0,9.81,49.44,1.44,1.75,49.44,1.44,1.75
1751943469999,1.0,0.0,0.0,0.0,0.0,0.0,9.81,52.75,3.44,3.94,52.75,3.44,3.94
1751943470099,1.0,0.0,0.0,0.0,0.0,0.0,9.81,55.0,3.88,2.88,55.0,3.88,2.88
1751943470316,1.0,0.0,0.0,0.0,0.0,0.0,9.81,58.06,2.5,3.44,58.06,2.5,3.44
1751943470416,1.0,0.0,0.0,0.0,0.0,0.0,9.81,56.63,1.25,1.25,56.63,1.25,1.25
1751943470516,1.0,0.0,0.0,0.0,0.0,0.0,9.81,56.88,1.25,1.25,56.88,1.25,1.25
1751943470634,1.0,0.0,0.0,0.0,0.0,0.0,9.81,57.31,1.25,1.25,57.31,1.25,1.25
1751943470834,1.0,0.0,0.0,0.0,0.0,0.0,9.81,58.13,1.31,1.25,58.13,1.31,1.25
1751943470951,1.0,0.0,0.0,0.0,0.0,0.0,9.81,58.25,1.38,1.25,58.25,1.38,1.25
1751943471051,1.0,0.0,0.0,0.0,0.0,0.0,9.81,58.38,1.38,1.25,58.38,1.38,1.25
1751943471168,1.0,0.0,0.0,0.0,0.0,0.0,9.81,58.56,1.44,1.25,58.56,1.44,1.25
1751943471368,1.0,0.0,0.0,0.0,0.0,0.0,9.81,58.94,1.44,1.25,58.94,1.44,1.25
1751943471485,1.0,0.0,0.0,0.0,0.0,0.0,9.81,58.94,1.44,1.25,58.94,1.44,1.25
1751943471585,1.0,0.0,0.0,0.0,0.0,0.0,9.81,59.0,1.44,1.25,59.0,1.44,1.25
1751943471703,1.0,0.0,0.0,0.0,0.0,0.0,9.81,59.0,1.44,1.25,59.0,1.44,1.25
1751943471803,1.0,0.0,0.0,0.0,0.0,0.0,9.81,59.25,1.44,1.25,59.25,1.44,1.25
1751943471903,1.0,0.0,0.0,0.0,0.0,0.0,9.81,59.5,1.44,1.25,59.5,1.44,1.25
1751943472020,1.0,0.0,0.0,0.0,0.0,0.0,9.81,59.5,1.44,1.25,59.5,1.44,1.25
1751943472320,1.0,0.0,0.0,0.0,0.0,0.0,9.81,59.56,1.44,1.25,59.56,1.44,1.25
1751943472437,1.0,0.0,0.0,0.0,0.0,0.0,9.81,59.56,1.44,1.25,59.56,1.44,1.25
1751943472538,1.0,0.0,0.0,0.0,0.0,0.0,9.81,59.56,1.44,1.25,59.56,1.44,1.25
1751943472639,1.0,0.0,0.0,0.0,0.0,0.0,9.81,59.56,1.44,1.25,59.56,1.44,1.25
1751943472756,1.0,0.0,0.0,0.0,0.0,0.0,9.81,59.56,1.44,1.25,59.56,1.44,1.25
1751943472856,1.0,0.0,0.0,0.0,0.0,0.0,9.81,59.56,1.44,1.25,59.56,1.44,1.25
1751943473056,1.0,0.0,0.0,0.0,0.0,0.0,9.81,59.56,1.44,1.25,59.56,1.44,1.25
1751943473173,1.0,0.0,0.0,0.0,0.0,0.0,9.81,59.56,1.44,1.25,59.56,1.44,1.25
1751943473273,1.0,0.0,0.0,0.0,0.0,0.0,9.81,59.56,1.44,1.25,59.56,1.44,1.25
1751943473390,1.0,0.0,0.0,0.0,0.0,0.0,9.81,59.56,1.44,1.25,59.56,1.44,1.25
1751943473490,1.0,0.0,0.0,0.0,0.0,0.0,9.81,59.56,1.44,1.25,59.56,1.44,1.25
1751943473590,1.0,0.0,0.0,0.0,0.0,0.0,9.81,59.56,1.44,1.25,59.56,1.44,1.25
1751943473810,1.0,0.0,0.0,0.0,0.0,0.0,9.81,59.56,1.44,1.25,59.56,1.44,1.25
1751943473913,1.0,0.0,0.0,0.0,0.0,0.0,9.81,59.56,1.44,1.25,59.56,1.44,1.25
1751943474016,1.0,0.0,0.0,0.0,0.0,0.0,9.81,59.56,1.44,1.25,59.56,1.44,1.25
1751943474137,1.0,0.0,0.0,0.0,0.0,0.0,9.81,59.56,1.44,1.25,59.56,1.44,1.25
1751943474240,1.0,0.0,0.0,0.0,0.0,0.0,9.81,59.56,1.44,1.25,59.56,1.44,1.25
1751943474346,1.0,0.0,0.0,0.0,0.0,0.0,9.81,59.56,1.44,1.25,59.56,1.44,1.25
1751943474454,1.0,0.0,0.0,0.0,0.0,0.0,9.81,59.56,1.44,1.25,59.56,1.44,1.25
1751943474662,1.0,0.0,0.0,0.0,0.0,0.0,9.81,59.56,1.44,1.25,59.56,1.44,1.25
1751943474762,1.0,0.0,0.0,0.0,0.0,0.0,9.81,59.56,1.44,1.25,59.56,1.44,1.25
1751943474862,1.0,0.0,0.0,0.0,0.0,0.0,9.81,59.56,1.44,1.25,59.56,1.44,1.25
1751943474979,1.0,0.0,0.0,0.0,0.0,0.0,9.81,59.56,1.44,1.25,59.56,1.44,1.25
1751943475080,1.0,0.0,0.0,0.0,0.0,0.0,9.81,59.56,1.44,1.25,59.56,1.44,1.25
1751943475196,1.0,0.0,0.0,0.0,0.0,0.0,9.81,59.56,1.44,1.25,59.56,1.44,1.25
1751943475396,1.0,0.0,0.0,0.0,0.0,0.0,9.81,59.56,1.44,1.25,59.56,1.44,1.25
1751943475513,1.0,0.0,0.0,0.0,0.0,0.0,9.81,59.56,1.44,1.25,59.56,1.44,1.25
1751943475613,1.0,0.0,0.0,0.0,0.0,0.0,9.81,59.56,1.44,1.25,59.56,1.44,1.25
1751943475815,1.0,0.0,0.0,0.0,0.0,0.0,9.81,59.56,1.44,1.25,59.56,1.44,1.25
1751943475932,1.0,0.0,0.0,0.0,0.0,0.0,9.81,59.56,1.44,1.25,59.56,1.44,1.25
1751943476235,1.0,0.0,0.0,0.0,0.0,0.0,9.81,59.56,1.44,1.25,59.56,1.44,1.25
1751943476451,1.0,0.0,0.0,0.0,0.0,0.0,9.81,59.56,1.44,1.25,59.56,1.44,1.25
1751943476554,1.0,0.0,0.0,0.0,0.0,0.0,9.81,59.56,1.44,1.25,59.56,1.44,1.25
1751943476655,1.0,0.0,0.0,0.0,0.0,0.0,9.81,59.56,1.44,1.25,59.56,1.44,1.25
1751943476773,1.0,0.0,0.0,0.0,0.0,0.0,9.81,59.56,1.44,1.25,59.56,1.44,1.25
1751943477073,1.0,0.0,0.0,0.0,0.0,0.0,9.81,59.56,1.44,1.25,59.56,1.44,1.25
1751943477173,1.0,0.0,0.0,0.0,0.0,0.0,9.81,59.56,1.44,1.25,59.56,1.44,1.25
1751943477291,1.0,0.0,0.0,0.0,0.0,0.0,9.81,59.56,1.44,1.25,59.56,1.44,1.25
1751943477391,1.0,0.0,0.0,0.0,0.0,0.0,9.81,59.56,1.44,1.25,59.56,1.44,1.25
1751943477507,1.0,0.0,0.0,0.0,0.0,0.0,9.81,59.56,1.44,1.25,59.56,1.44,1.25
1751943477608,1.0,0.0,0.0,0.0,0.0,0.0,9.81,59.56,1.44,1.25,59.56,1.44,1.25
1751943477809,1.0,0.0,0.0,0.0,0.0,0.0,9.81,59.56,1.44,1.25,59.56,1.44,1.25
1751943477926,1.0,0.0,0.0,0.0,0.0,0.0,9.81,59.56,1.44,1.25,59.56,1.44,1.25
1751943478027,1.0,0.0,0.0,0.0,0.0,0.0,9.81,59.56,1.44,1.25,59.56,1.44,1.25
1751943478126,1.0,0.0,0.0,0.0,0.0,0.0,9.81,59.56,1.44,1.25,59.56,1.44,1.25
1751943478243,1.0,0.0,0.0,0.0,0.0,0.0,9.81,59.56,1.44,1.25,59.56,1.44,1.25
1751943478343,1.0,0.0,0.0,0.0,0.0,0.0,9.81,59.56,1.44,1.25,59.56,1.44,1.25
1751943478652,1.0,0.0,0.0,0.0,0.0,0.0,9.81,59.56,1.44,1.25,59.56,1.44,1.25
1751943478763,1.0,0.0,0.0,0.0,0.0,0.0,9.81,59.56,1.44,1.25,59.56,1.44,1.25
1751943478877,1.0,0.0,0.0,0.0,0.0,0.0,9.81,59.56,1.44,1.25,59.56,1.44,1.25
1751943478988,1.0,0.0,0.0,0.0,0.0,0.0,9.81,59.56,1.44,1.25,59.56,1.44,1.25
1751943479084,1.0,0.0,0.0,0.0,0.0,0.0,9.81,59.56,1.44,1.25,59.56,1.44,1.25
1751943479194,1.0,0.0,0.0,0.0,0.0,0.0,9.81,59.56,1.44,1.25,59.56,1.44,1.25
1751943479303,1.0,0.0,0.0,0.0,0.0,0.0,9.81,59.56,1.44,1.25,59.56,1.44,1.25
1751943479413,1.0,0.0,0.0,0.0,0.0,0.0,9.81,59.56,1.44,1.25,59.56,1.44,1.25
1751943479506,1.0,0.0,0.0,0.0,0.0,0.0,9.81,59.56,1.44,1.25,59.56,1.44,1.25
1751943479715,1.0,0.0,0.0,0.0,0.0,0.0,9.81,59.56,1.44,1.25,59.56,1.44,1.25
1751943479832,1.0,0.0,0.0,0.0,0.0,0.0,9.81,59.56,1.44,1.25,59.56,1.44,1.25
1751943479932,1.0,0.0,0.0,0.0,0.0,0.0,9.81,59.56,1.44,1.25,59.56,1.44,1.25
1751943480149,1.0,0.0,0.0,0.0,0.0,0.0,9.81,59.56,1.44,1.25,59.56,1.44,1.25
1751943480349,1.0,0.0,0.0,0.0,0.0,0.0,9.81,59.56,1.44,1.25,59.56,1.44,1.25
1751943480466,1.0,0.0,0.0,0.0,0.0,0.0,9.81,59.56,1.44,1.25,59.56,1.44,1.25
1751943480566,1.0,0.0,0.0,0.0,0.0,0.0,9.81,59.56,1.44,1.25,59.56,1.44,1.25
1751943480667,1.0,0.0,0.0,0.0,0.0,0.0,9.81,59.56,1.44,1.25,59.56,1.44,1.25
1751943480784,1.0,0.0,0.0,0.0,0.0,0.0,9.81,59.56,1.44,1.25,59.56,1.44,1.25
1751943480884,1.0,0.0,0.0,0.0,0.0,0.0,9.81,59.56,1.44,1.25,59.56,1.44,1.25
1751943481001,1.0,0.0,0.0,0.0,0.0,0.0,9.81,59.56,1.44,1.25,59.56,1.44,1.25
1751943481101,1.0,0.0,0.0,0.0,0.0,0.0,9.81,59.56,1.44,1.25,59.56,1.44,1.25
1751943481202,1.0,0.0,0.0,0.0,0.0,0.0,9.81,59.56,1.44,1.25,59.56,1.44,1.25
1751943481318,1.0,0.0,0.0,0.0,0.0,0.0,9.81,59.56,1.44,1.25,59.56,1.44,1.25
1751943481419,1.0,0.0,0.0,0.0,0.0,0.0,9.81,59.56,1.44,1.25,59.56,1.44,1.25
1751943481519,1.0,0.0,0.0,0.0,0.0,0.0,9.81,59.56,1.44,1.25,59.56,1.44,1.25
1751943481635,1.0,0.0,0.0,0.0,0.0,0.0,9.81,59.56,1.44,1.25,59.56,1.44,1.25
1751943481737,1.0,0.0,0.0,0.0,0.0,0.0,9.81,59.56,1.44,1.25,59.56,1.44,1.25
1751943481838,1.0,0.0,0.0,0.0,0.0,0.0,9.81,59.56,1.44,1.25,59.56,1.44,1.25
1751943481958,1.0,0.0,0.0,0.0,0.0,0.0,9.81,59.56,1.44,1.25,59.56,1.44,1.25
1751943482061,1.0,0.0,0.0,0.0,0.0,0.0,9.81,59.56,1.44,1.25,59.56,1.44,1.25
1751943482162,1.0,0.0,0.0,0.0,0.0,0.0,9.81,59.56,1.44,1.25,59.56,1.44,1.25
1751943482272,1.0,0.0,0.0,0.0,0.0,0.0,9.81,59.56,1.44,1.25,59.56,1.44,1.25
1751943482380,1.0,0.0,0.0,0.0,0.0,0.0,9.81,59.56,1.44,1.25,59.56,1.44,1.25
1751943482483,1.0,0.0,0.0,0.0,0.0,0.0,9.81,59.56,1.44,1.25,59.56,1.44,1.25
1751943482592,1.0,0.0,0.0,0.0,0.0,0.0,9.81,59.56,1.44,1.25,59.56,1.44,1.25
1751943482796,1.0,0.0,0.0,0.0,0.0,0.0,9.81,59.56,1.44,1.25,59.56,1.44,1.25
1751943482897,1.0,0.0,0.0,0.0,0.0,0.0,9.81,59.56,1.44,1.25,59.56,1.44,1.25
1751943483013,1.0,0.0,0.0,0.0,0.0,0.0,9.81,59.56,1.44,1.25,59.56,1.44,1.25
1751943483114,1.0,0.0,0.0,0.0,0.0,0.0,9.81,59.56,1.44,1.25,59.56,1.44,1.25
1751943483231,1.0,0.0,0.0,0.0,0.0,0.0,9.81,59.56,1.44,1.25,59.56,1.44,1.25
1751943483330,1.0,0.0,0.0,0.0,0.0,0.0,9.81,59.56,1.44,1.25,59.56,1.44,1.25
1751943483447,1.0,0.0,0.0,0.0,0.0,0.0,9.81,59.56,1.44,1.25,59.56,1.44,1.25
1751943483548,1.0,0.0,0.0,0.0,0.0,0.0,9.81,59.56,1.44,1.25,59.56,1.44,1.25
1751943483648,1.0,0.0,0.0,0.0,0.0,0.0,9.81,59.56,1.44,1.25,59.56,1.44,1.25
1751943483765,1.0,0.0,0.0,0.0,0.0,0.0,9.81,59.56,1.44,1.25,59.56,1.44,1.25
1751943483866,1.0,0.0,0.0,0.0,0.0,0.0,9.81,59.56,1.44,1.25,59.56,1.44,1.25
1751943483972,1.0,0.0,0.0,0.0,0.0,0.0,9.81,59.56,1.44,1.25,59.56,1.44,1.25
1751943484078,1.0,0.0,0.0,0.0,0.0,0.0,9.81,59.56,1.44,1.25,59.56,1.44,1.25
1751943484288,1.0,0.0,0.0,0.0,0.0,0.0,9.81,59.56,1.44,1.25,59.56,1.44,1.25
1751943484397,1.0,0.0,0.0,0.0,0.0,0.0,9.81,59.56,1.44,1.25,59.56,1.44,1.25
1751943484502,1.0,0.0,0.0,0.0,0.0,0.0,9.81,59.56,1.44,1.25,59.56,1.44,1.25
1751943484609,1.0,0.0,0.0,0.0,0.0,0.0,9.81,59.56,1.44,1.25,59.56,1.44,1.25
1751943484728,1.0,0.0,0.0,0.0,0.0,0.0,9.81,59.56,1.44,1.25,59.56,1.44,1.25
1751943484831,1.0,0.0,0.0,0.0,0.0,0.0,9.81,59.56,1.44,1.25,59.56,1.44,1.25
1751943484931,1.0,0.0,0.0,0.0,0.0,0.0,9.81,59.56,1.44,1.25,59.56,1.44,1.25
1751943485048,1.0,0.0,0.0,0.0,0.0,0.0,9.81,59.56,1.44,1.25,59.56,1.44,1.25
1751943485148,1.0,0.0,0.0,0.0,0.0,0.0,9.81,59.56,1.44,1.25,59.56,1.44,1.25
1751943485365,1.0,0.0,0.0,0.0,0.0,0.0,9.81,59.56,1.44,1.25,59.56,1.44,1.25
1751943485465,1.0,0.0,0.0,0.0,0.0,0.0,9.81,59.56,1.44,1.25,59.56,1.44,1.25
1751943485582,1.0,0.0,0.0,0.0,0.0,0.0,9.81,59.56,1.44,1.25,59.56,1.44,1.25
1751943485682,1.0,0.0,0.0,0.0,0.0,0.0,9.81,59.56,1.44,1.25,59.56,1.44,1.25
1751943485783,1.0,0.0,0.0,0.0,0.0,0.0,9.81,59.56,1.44,1.25,59.56,1.44,1.25
1751943485984,1.0,0.0,0.0,0.0,0.0,0.0,9.81,59.56,1.44,1.25,59.56,1.44,1.25
1751943486101,1.0,0.0,0.0,0.0,0.0,0.0,9.81,59.56,1.44,1.25,59.56,1.44,1.25
1751943486201,1.0,0.0,0.0,0.0,0.0,0.0,9.81,59.56,1.44,1.25,59.56,1.44,1.25
1751943486318,1.0,0.0,0.0,0.0,0.0,0.0,9.81,59.56,1.44,1.25,59.56,1.44,1.25
1751943486418,1.0,0.0,0.0,0.0,0.0,0.0,9.81,59.56,1.44,1.25,59.56,1.44,1.25
1751943486619,1.0,0.0,0.0,0.0,0.0,0.0,9.81,59.56,1.44,1.25,59.56,1.44,1.25
1751943486736,1.0,0.0,0.0,0.0,0.0,0.0,9.81,59.56,1.44,1.25,59.56,1.44,1.25
1751943486837,1.0,0.0,0.0,0.0,0.0,0.0,9.81,59.56,1.44,1.25,59.56,1.44,1.25
1751943486937,1.0,0.0,0.0,0.0,0.0,0.0,9.81,59.56,1.44,1.25,59.56,1.44,1.25
1751943487038,1.0,0.0,0.0,0.0,0.0,0.0,9.81,59.56,1.44,1.25,59.56,1.44,1.25
1751943487154,1.0,0.0,0.0,0.0,0.0,0.0,9.81,59.56,1.44,1.25,59.56,1.44,1.25
1751943487254,1.0,0.0,0.0,0.0,0.0,0.0,9.81,59.56,1.44,1.25,59.56,1.44,1.25
1751943487355,1.0,0.0,0.0,0.0,0.0,0.0,9.81,59.56,1.44,1.25,59.56,1.44,1.25
1751943487471,1.0,0.0,0.0,0.0,0.0,0.0,9.81,59.56,1.44,1.25,59.56,1.44,1.25
1751943487688,1.0,0.0,0.0,0.0,0.0,0.0,9.81,59.56,1.44,1.25,59.56,1.44,1.25
1751943487788,1.0,0.0,0.0,0.0,0.0,0.0,9.81,59.56,1.44,1.25,59.56,1.44,1.25
1751943487890,1.0,0.0,0.0,0.0,0.0,0.0,9.81,59.56,1.44,1.25,59.56,1.44,1.25
1751943488004,1.0,0.0,0.0,0.0,0.0,0.0,9.81,59.56,1.44,1.25,59.56,1.44,1.25
1751943488100,1.0,0.0,0.0,0.0,0.0,0.0,9.81,59.56,1.44,1.25,59.56,1.44,1.25
1751943488211,1.0,0.0,0.0,0.0,0.0,0.0,9.81,59.56,1.44,1.25,59.56,1.44,1.25
1751943488321,1.0,0.0,0.0,0.0,0.0,0.0,9.81,59.56,1.44,1.25,59.56,1.44,1.25
1751943488431,1.0,0.0,0.0,0.0,0.0,0.0,9.81,59.56,1.44,1.25,59.56,1.44,1.25
1751943488524,1.0,0.0,0.0,0.0,0.0,0.0,9.81,59.56,1.44,1.25,59.56,1.44,1.25
1751943488633,1.0,0.0,0.0,0.0,0.0,0.0,9.81,59.56,1.44,1.25,59.56,1.44,1.25
1751943488742,1.0,0.0,0.0,0.0,0.0,0.0,9.81,59.56,1.44,1.25,59.56,1.44,1.25
1751943488843,1.0,0.0,0.0,0.0,0.0,0.0,9.81,59.56,1.44,1.25,59.56,1.44,1.25
1751943488956,1.0,0.0,0.0,0.0,0.0,0.0,9.81,59.56,1.44,1.25,59.56,1.44,1.25
1751943489069,1.0,0.0,0.0,0.0,0.0,0.0,9.81,59.56,1.44,1.25,59.56,1.44,1.25
1751943489178,1.0,0.0,0.0,0.0,0.0,0.0,9.81,59.56,1.44,1.25,59.56,1.44,1.25
1751943489384,1.0,0.0,0.0,0.0,0.0,0.0,9.81,59.56,1.44,1.25,59.56,1.44,1.25
1751943489493,1.0,0.0,0.0,0.0,0.0,0.0,9.81,59.56,1.44,1.25,59.56,1.44,1.25
1751943489586,1.0,0.0,0.0,0.0,0.0,0.0,9.81,59.56,1.44,1.25,59.56,1.44,1.25
1751943489695,1.0,0.0,0.0,0.0,0.0,0.0,9.81,59.56,1.44,1.25,59.56,1.44,1.25
1751943489812,1.0,0.0,0.0,0.0,0.0,0.0,9.81,59.56,1.44,1.25,59.56,1.44,1.25
1751943489910,1.0,0.0,0.0,0.0,0.0,0.0,9.81,59.56,1.44,1.25,59.56,1.44,1.25
1751943490021,1.0,0.0,0.0,0.0,0.0,0.0,9.81,59.56,1.44,1.25,59.56,1.44,1.25
1751943490132,1.0,0.0,0.0,0.0,0.0,0.0,9.81,59.56,1.44,1.25,59.56,1.44,1.25
1751943490227,1.0,0.0,0.0,0.0,0.0,0.0,9.81,59.56,1.44,1.25,59.56,1.44,1.25
1751943490336,1.0,0.0,0.0,0.0,0.0,0.0,9.81,59.56,1.44,1.25,59.56,1.44,1.25
1751943490445,1.0,0.0,0.0,0.0,0.0,0.0,9.81,59.56,1.44,1.25,59.56,1.44,1.25
1751943490554,1.0,0.0,0.0,0.0,0.0,0.0,9.81,59.56,1.44,1.25,59.56,1.44,1.25
1751943490664,1.0,0.0,0.0,0.0,0.0,0.0,9.81,59.56,1.44,1.25,59.56,1.44,1.25
1751943490765,1.0,0.0,0.0,0.0,0.0,0.0,9.81,59.56,1.44,1.25,59.56,1.44,1.25
1751943490867,1.0,0.0,0.0,0.0,0.0,0.0,9.81,59.56,1.44,1.25,59.56,1.44,1.25
1751943490986,1.0,0.0,0.0,0.0,0.0,0.0,9.81,59.56,1.44,1.25,59.56,1.44,1.25
1751943491088,1.0,0.0,0.0,0.0,0.0,0.0,9.81,59.56,1.44,1.25,59.56,1.44,1.25
1751943491295,1.0,0.0,0.0,0.0,0.0,0.0,9.81,59.56,1.44,1.25,59.56,1.44,1.25
1751943491402,1.0,0.0,0.0,0.0,0.0,0.0,9.81,59.56,1.44,1.25,59.56,1.44,1.25
1751943491506,1.0,0.0,0.0,0.0,0.0,0.0,9.81,59.56,1.44,1.25,59.56,1.44,1.25
1751943491626,1.0,0.0,0.0,0.0,0.0,0.0,9.81,59.56,1.44,1.25,59.56,1.44,1.25
1751943491734,1.0,0.0,0.0,0.0,0.0,0.0,9.81,59.56,1.44,1.25,59.56,1.44,1.25
1751943491834,1.0,0.0,0.0,0.0,0.0,0.0,9.81,59.56,1.44,1.25,59.56,1.44,1.25
1751943491935,1.0,0.0,0.0,0.0,0.0,0.0,9.81,59.56,1.44,1.25,59.56,1.44,1.25
1751943492035,1.0,0.0,0.0,0.0,0.0,0.0,9.81,59.56,1.44,1.25,59.56,1.44,1.25
1751943492152,1.0,0.0,0.0,0.0,0.0,0.0,9.81,59.56,1.44,1.25,59.56,1.44,1.25
1751943492252,1.0,0.0,0.0,0.0,0.0,0.0,9.81,59.56,1.44,1.25,59.56,1.44,1.25
1751943492352,1.0,0.0,0.0,0.0,0.0,0.0,9.81,59.56,1.44,1.25,59.56,1.44,1.25
1751943492469,1.0,0.0,0.0,0.0,0.0,0.0,9.81,59.56,1.44,1.25,59.56,1.44,1.25
1751943492669,1.0,0.0,0.0,0.0,0.0,0.0,9.81,59.56,1.44,1.25,59.56,1.44,1.25
1751943492787,1.0,0.0,0.0,0.0,0.0,0.0,9.81,59.56,1.44,1.25,59.56,1.44,1.25
1751943492988,1.0,0.0,0.0,0.0,0.0,0.0,9.81,59.56,1.44,1.25,59.56,1.44,1.25
1751943493088,1.0,0.0,0.0,0.0,0.0,0.0,9.81,59.56,1.44,1.25,59.56,1.44,1.25
1751943493189,1.0,0.0,0.0,0.0,0.0,0.0,9.81,59.56,1.44,1.25,59.56,1.44,1.25
1751943493305,1.0,0.0,0.0,0.0,0.0,0.0,9.81,59.56,1.44,1.25,59.56,1.44,1.25
1751943493506,1.0,0.0,0.0,0.0,0.0,0.0,9.81,59.56,1.44,1.25,59.56,1.44,1.25
1751943493606,1.0,0.0,0.0,0.0,0.0,0.0,9.81,59.56,1.44,1.25,59.56,1.44,1.25
1751943493724,1.0,0.0,0.0,0.0,0.0,0.0,9.81,59.56,1.44,1.25,59.56,1.44,1.25
1751943493824,1.0,0.0,0.0,0.0,0.0,0.0,9.81,59.56,1.44,1.25,59.56,1.44,1.25
1751943493925,1.0,0.0,0.0,0.0,0.0,0.0,9.81,59.56,1.44,1.25,59.56,1.44,1.25
1751943494042,1.0,0.0,0.0,0.0,0.0,0.0,9.81,59.56,1.44,1.25,59.56,1.44,1.25
1751943494141,1.0,0.0,0.0,0.0,0.0,0.0,9.81,59.56,1.44,1.25,59.56,1.44,1.25
1751943494258,1.0,0.0,0.0,0.0,0.0,0.0,9.81,59.56,1.44,1.25,59.56,1.44,1.25
1751943494458,1.0,0.0,0.0,0.0,0.0,0.0,9.81,59.56,1.44,1.25,59.56,1.44,1.25
1751943494559,1.0,0.0,0.0,0.0,0.0,0.0,9.81,59.56,1.44,1.25,59.56,1.44,1.25
1751943494777,1.0,0.0,0.0,0.0,0.0,0.0,9.81,59.56,1.44,1.25,59.56,1.44,1.25
1751943494877,1.0,0.0,0.0,0.0,0.0,0.0,9.81,59.56,1.44,1.25,59.56,1.44,1.25
1751943494995,1.0,0.0,0.0,0.0,0.0,0.0,9.81,59.56,1.44,1.25,59.56,1.44,1.25
1751943495096,1.0,0.0,0.0,0.0,0.0,0.0,9.81,59.56,1.44,1.25,59.56,1.44,1.25
1751943495213,1.0,0.0,0.0,0.0,0.0,0.0,9.81,59.56,1.44,1.25,59.56,1.44,1.25
1751943495313,1.0,0.0,0.0,0.0,0.0,0.0,9.81,59.56,1.44,1.25,59.56,1.44,1.25
1751943495413,1.0,0.0,0.0,0.0,0.0,0.0,9.81,59.56,1.44,1.25,59.56,1.44,1.25
1751943495530,1.0,0.0,0.0,0.0,0.0,0.0,9.81,59.56,1.44,1.25,59.56,1.44,1.25
1751943495630,1.0,0.0,0.0,0.0,0.0,0.0,9.81,59.56,1.44,1.25,59.56,1.44,1.25
1751943495748,1.0,0.0,0.0,0.0,0.0,0.0,9.81,59.56,1.44,1.25,59.56,1.44,1.25
1751943495848,1.0,0.0,0.0,0.0,0.0,0.0,9.81,59.56,1.44,1.25,59.56,1.44,1.25
1751943495965,1.0,0.0,0.0,0.0,0.0,0.0,9.81,59.56,1.44,1.25,59.56,1.44,1.25
1751943496065,1.0,0.0,0.0,0.0,0.0,0.0,9.81,59.56,1.44,1.25,59.56,1.44,1.25
1751943496166,1.0,0.0,0.0,0.0,0.0,0.0,9.81,59.56,1.44,1.25,59.56,1.44,1.25
1751943496282,1.0,0.0,0.0,0.0,0.0,0.0,9.81,59.56,1.44,1.25,59.56,1.44,1.25
1751943496383,1.0,0.0,0.0,0.0,0.0,0.0,9.81,59.56,1.44,1.25,59.56,1.44,1.25
1751943496496,1.0,0.0,0.0,0.0,0.0,0.0,9.81,59.56,1.44,1.25,59.56,1.44,1.25
1751943496599,1.0,0.0,0.0,0.0,0.0,0.0,9.81,59.56,1.44,1.25,59.56,1.44,1.25
1751943496716,1.0,0.0,0.0,0.0,0.0,0.0,9.81,59.56,1.44,1.25,59.56,1.44,1.25
1751943496817,1.0,0.0,0.0,0.0,0.0,0.0,9.81,59.56,1.44,1.25,59.56,1.44,1.25
1751943496919,1.0,0.0,0.0,0.0,0.0,0.0,9.81,59.56,1.44,1.25,59.56,1.44,1.25
1751943497230,1.0,0.0,0.0,0.0,0.0,0.0,9.81,59.56,1.44,1.25,59.56,1.44,1.25
1751943497443,1.0,0.0,0.0,0.0,0.0,0.0,9.81,59.56,1.44,1.25,59.56,1.44,1.25
