timestamp,heading,roll,pitch,acc_x,acc_y,acc_z,lin_acc_x,lin_acc_y,lin_acc_z,quat_w,quat_x,quat_y,quat_z,mag_x,mag_y,mag_z
1752859031319,262.0,-23.0,166.0,-4.0,-3.0,-9.0,0.2,-0.3,0.1,0.22,-0.74,0.63,0.08,0.0,0.0,0.0
1752859031404,262.0,-24.0,166.0,-4.0,-2.0,-9.0,0.2,-0.0,-0.3,0.22,-0.74,0.63,0.08,0.0,0.0,0.0
1752859031557,262.0,-24.0,167.0,-4.0,-2.0,-9.0,-0.1,-0.3,-0.3,0.22,-0.74,0.64,0.09,0.0,0.0,0.0
1752859031607,262.0,-24.0,168.0,-4.0,-2.0,-9.0,-0.1,-0.3,-0.2,0.21,-0.73,0.64,0.09,0.0,0.0,0.0
1752859031756,262.0,-24.0,168.0,-4.0,-2.0,-9.0,-0.2,-0.3,-0.0,0.21,-0.73,0.64,0.09,0.0,0.0,0.0
1752859031804,262.0,-24.0,168.0,-4.0,-2.0,-9.0,-0.1,-0.2,0.2,0.21,-0.74,0.64,0.1,0.0,0.0,0.0
1752859031847,262.0,-24.0,168.0,-5.0,-1.0,-9.0,-0.9,0.5,-0.3,0.21,-0.74,0.64,0.1,0.0,0.0,0.0
1752859031893,262.0,-25.0,168.0,-7.0,-2.0,-10.0,-3.0,-2.0,-3.5,0.22,-0.74,0.63,0.1,0.0,0.0,0.0
1752859031942,261.0,-25.0,168.0,-6.0,-1.0,-12.0,-1.1,0.2,-3.5,0.21,-0.74,0.63,0.1,0.0,0.0,0.0
1752859031988,260.0,-24.0,168.0,-4.0,-4.0,-10.0,-0.0,-2.2,-1.3,0.21,-0.75,0.62,0.1,0.0,0.0,0.0
1752859032132,239.0,-17.0,-173.0,-2.0,2.0,-6.0,0.7,0.7,3.6,0.21,-0.76,0.61,0.09,0.0,0.0,0.0
1752859032278,224.0,-26.0,-165.0,-7.0,0.0,-3.0,-2.3,-2.1,5.6,-0.02,-0.9,0.36,0.26,0.0,0.0,0.0
1752859032314,218.0,-34.0,-162.0,-6.0,3.0,-6.0,0.3,-0.1,0.1,-0.03,-0.89,0.31,0.32,0.0,0.0,0.0
1752859032365,169.0,-45.0,-158.0,-8.0,0.0,-5.0,-0.6,-2.3,1.3,-0.04,-0.88,0.25,0.39,0.0,0.0,0.0
1752859032403,171.0,-54.0,-158.0,-12.0,1.0,-3.0,-3.8,-1.1,2.0,-0.04,-0.87,0.19,0.46,0.0,0.0,0.0
1752859032558,168.0,-74.0,165.0,-10.0,4.0,-3.0,2.6,4.7,-3.0,-0.03,-0.85,0.12,0.52,0.0,0.0,0.0
1752859032592,159.0,-73.0,156.0,-9.0,-1.0,-3.0,0.0,0.5,-0.5,-0.11,-0.76,-0.24,0.6,0.0,0.0,0.0
1752859032643,148.0,-72.0,153.0,-12.0,-4.0,-2.0,0.4,0.3,0.7,-0.17,-0.73,-0.33,0.58,0.0,0.0,0.0
1752859032769,125.0,-69.0,154.0,-8.0,-2.0,-3.0,1.3,-0.0,0.6,-0.22,-0.69,-0.42,0.54,0.0,0.0,0.0
1752859032813,116.0,-71.0,161.0,-9.0,-1.0,-3.0,0.3,-0.3,-0.1,-0.3,-0.64,-0.5,0.5,0.0,0.0,0.0
1752859032854,105.0,-73.0,174.0,-11.0,-0.0,-2.0,-1.7,-0.3,1.1,-0.35,-0.63,-0.51,0.48,0.0,0.0,0.0
1752859032996,64.0,-68.0,-126.0,-12.0,-1.0,-1.0,-1.7,-2.3,-1.3,-0.4,-0.61,-0.51,0.45,0.0,0.0,0.0
1752859033044,55.0,-64.0,-115.0,-9.0,4.0,-3.0,-0.7,0.0,-1.5,-0.57,-0.6,-0.48,0.29,0.0,0.0,0.0
1752859033192,40.0,-47.0,-105.0,-8.0,5.0,-2.0,0.5,-0.9,-1.4,-0.6,-0.61,-0.46,0.25,0.0,0.0,0.0
1752859033228,40.0,-43.0,-109.0,-6.0,5.0,-4.0,0.4,-3.4,-0.3,-0.58,-0.72,-0.32,0.21,0.0,0.0,0.0
1752859033271,42.0,-38.0,-116.0,-5.0,3.0,-2.0,1.0,-3.3,1.9,-0.53,-0.77,-0.29,0.2,0.0,0.0,0.0
1752859033313,45.0,-36.0,-123.0,-5.0,4.0,-3.0,0.8,-2.2,1.4,-0.5,-0.8,-0.27,0.2,0.0,0.0,0.0
1752859033360,49.0,-37.0,-125.0,-6.0,5.0,-5.0,0.4,-1.3,-0.3,-0.48,-0.81,-0.27,0.21,0.0,0.0,0.0
1752859033497,58.0,-40.0,-130.0,-5.0,10.0,-8.0,-0.0,0.4,-0.3,-0.45,-0.82,-0.28,0.23,0.0,0.0,0.0
1752859033647,138.0,-72.0,178.0,-10.0,0.0,-5.0,-0.6,0.5,-2.9,-0.21,-0.75,-0.29,0.55,0.0,0.0,0.0
1752859033691,151.0,-78.0,150.0,-12.0,-2.0,-3.0,-2.7,-0.8,-1.9,-0.17,-0.73,-0.27,0.61,0.0,0.0,0.0
1752859033730,157.0,-80.0,115.0,-11.0,-2.0,-1.0,-0.9,-0.0,-0.6,-0.14,-0.69,-0.25,0.67,0.0,0.0,0.0
1752859033879,162.0,-71.0,65.0,-7.0,-4.0,2.0,1.1,-0.1,-0.4,-0.12,-0.59,-0.29,0.75,0.0,0.0,0.0
1752859033916,160.0,-69.0,63.0,-9.0,-4.0,1.0,0.1,-0.9,-0.6,-0.13,-0.57,-0.31,0.75,0.0,0.0,0.0
1752859033951,159.0,-69.0,59.0,-8.0,-4.0,2.0,0.9,-0.8,0.4,-0.14,-0.56,-0.3,0.76,0.0,0.0,0.0
1752859034100,152.0,-75.0,52.0,-10.0,-1.0,1.0,-0.3,0.3,-0.6,-0.15,-0.56,-0.31,0.75,0.0,0.0,0.0
1752859034150,149.0,-79.0,56.0,-9.0,-1.0,1.0,0.8,-0.2,0.2,-0.2,-0.61,-0.28,0.72,0.0,0.0,0.0
1752859034184,145.0,-83.0,68.0,-10.0,-1.0,-0.0,-0.3,-0.5,-1.0,-0.22,-0.63,-0.28,0.69,0.0,0.0,0.0
1752859034232,141.0,-86.0,177.0,-11.0,-2.0,-0.0,-1.3,-1.1,0.1,-0.23,-0.66,-0.28,0.66,0.0,0.0,0.0
1752859034265,136.0,-84.0,179.0,-11.0,-2.0,-1.0,-0.9,-1.6,0.4,-0.25,-0.68,-0.28,0.63,0.0,0.0,0.0
1752859034301,133.0,-81.0,-168.0,-9.0,1.0,-2.0,0.2,0.1,0.1,-0.26,-0.7,-0.28,0.6,0.0,0.0,0.0
1752859034347,130.0,-77.0,-161.0,-9.0,-0.0,-3.0,0.1,1.0,0.0,-0.26,-0.72,-0.27,0.58,0.0,0.0,0.0
1752859034396,129.0,-73.0,-156.0,-11.0,-0.0,-1.0,0.0,0.0,0.0,-0.26,-0.75,-0.26,0.55,0.0,0.0,0.0
1752859034442,130.0,-68.0,-155.0,-9.0,-2.0,-5.0,-0.2,-3.2,-1.2,-0.24,-0.79,-0.21,0.52,0.0,0.0,0.0
1752859034492,136.0,-64.0,-156.0,-8.0,5.0,-7.0,-2.0,-2.6,0.1,-0.21,-0.81,-0.17,0.51,0.0,0.0,0.0
1752859034551,137.0,-61.0,-157.0,-10.0,2.0,-4.0,-0.6,-0.1,0.0,-0.19,-0.84,-0.14,0.49,0.0,0.0,0.0
1752859034586,134.0,-59.0,-156.0,-9.0,2.0,-4.0,-0.1,-0.4,1.2,-0.2,-0.85,-0.13,0.47,0.0,0.0,0.0
1752859034625,133.0,-56.0,-156.0,-8.0,2.0,-6.0,0.5,-0.3,-0.6,-0.2,-0.86,-0.12,0.46,0.0,0.0,0.0
1752859034661,133.0,-55.0,-154.0,-8.0,2.0,-5.0,0.3,-0.9,-0.1,-0.2,-0.86,-0.11,0.45,0.0,0.0,0.0
1752859035262,105.0,-34.0,-131.0,-5.0,6.0,-6.0,-0.1,-1.5,0.7,-0.29,-0.86,0.16,0.38,0.0,0.0,0.0
1752859035302,99.0,-32.0,-133.0,-6.0,5.0,-5.0,0.0,0.0,0.0,-0.29,-0.88,0.15,0.36,0.0,0.0,0.0
1752859035550,186.0,-27.0,-148.0,-5.0,4.0,-7.0,-0.6,0.0,0.3,-0.3,-0.89,0.13,0.33,0.0,0.0,0.0
1752859035700,182.0,-23.0,-155.0,-4.0,4.0,-8.0,-0.1,-0.3,0.3,-0.23,-0.94,0.04,0.24,0.0,0.0,0.0
1752859035746,181.0,-22.0,-156.0,-4.0,3.0,-8.0,-0.0,-0.9,-0.1,-0.2,-0.96,0.01,0.2,0.0,0.0,0.0
1752859035791,180.0,-21.0,-158.0,-4.0,3.0,-8.0,-0.2,-0.7,0.0,-0.18,-0.96,0.0,0.19,0.0,0.0,0.0
1752859035938,176.0,-21.0,-164.0,-4.0,2.0,-9.0,-0.1,-0.5,-0.3,-0.17,-0.97,-0.01,0.18,0.0,0.0,0.0
1752859035975,175.0,-21.0,-166.0,-4.0,1.0,-9.0,-0.4,-0.6,0.2,-0.13,-0.97,-0.04,0.18,0.0,0.0,0.0
1752859036018,174.0,-22.0,-168.0,-4.0,1.0,-9.0,-0.2,-0.5,-0.0,-0.11,-0.98,-0.05,0.18,0.0,0.0,0.0
1752859036064,173.0,-22.0,-170.0,-4.0,1.0,-9.0,-0.3,-0.4,0.2,-0.1,-0.98,-0.06,0.19,0.0,0.0,0.0
1752859036112,172.0,-23.0,-172.0,-4.0,1.0,-8.0,-0.3,-0.3,0.6,-0.08,-0.98,-0.07,0.19,0.0,0.0,0.0
1752859036146,171.0,-23.0,-173.0,-4.0,0.0,-9.0,-0.3,-0.6,-0.0,-0.07,-0.97,-0.07,0.2,0.0,0.0,0.0
1752859036195,171.0,-25.0,-175.0,-4.0,-0.0,-9.0,-0.3,-0.3,0.4,-0.06,-0.97,-0.08,0.21,0.0,0.0,0.0
1752859036239,170.0,-26.0,-177.0,-5.0,0.0,-8.0,-0.2,-0.6,0.2,-0.04,-0.97,-0.09,0.22,0.0,0.0,0.0
1752859036282,169.0,-28.0,-179.0,-5.0,-1.0,-9.0,0.0,-0.8,-0.2,-0.03,-0.97,-0.09,0.24,0.0,0.0,0.0
1752859036315,168.0,-30.0,179.0,-5.0,-1.0,-8.0,-0.2,-0.4,0.3,-0.02,-0.96,-0.1,0.25,0.0,0.0,0.0
1752859036362,168.0,-32.0,177.0,-6.0,-1.0,-8.0,-0.4,-0.1,0.4,-0.01,-0.96,-0.1,0.27,0.0,0.0,0.0
1752859036512,165.0,-39.0,170.0,-7.0,-3.0,-8.0,-1.3,-2.4,-1.0,0.0,-0.95,-0.1,0.29,0.0,0.0,0.0
1752859036548,165.0,-42.0,168.0,-6.0,-2.0,-7.0,0.3,-0.4,-0.5,0.04,-0.92,-0.12,0.37,0.0,0.0,0.0
1752859036694,199.0,-53.0,156.0,-8.0,-3.0,-5.0,-0.3,-0.6,-0.0,0.05,-0.91,-0.12,0.39,0.0,0.0,0.0
1752859036743,199.0,-56.0,153.0,-8.0,-3.0,-5.0,-0.2,-0.0,0.2,0.09,-0.86,-0.1,0.5,0.0,0.0,0.0
1752859036778,201.0,-61.0,149.0,-9.0,-3.0,-4.0,-0.2,-0.5,-0.0,0.09,-0.84,-0.08,0.53,0.0,0.0,0.0
1752859036826,200.0,-66.0,147.0,-9.0,-2.0,-3.0,0.0,-0.3,-0.1,0.1,-0.82,-0.06,0.55,0.0,0.0,0.0
1752859036863,199.0,-70.0,147.0,-10.0,-2.0,-4.0,-0.6,-0.2,-1.0,0.1,-0.81,-0.03,0.58,0.0,0.0,0.0
1752859036911,198.0,-74.0,148.0,-10.0,-2.0,-2.0,-0.5,-0.3,-0.8,0.1,-0.79,-0.0,0.61,0.0,0.0,0.0
1752859036963,199.0,-80.0,155.0,-10.0,-1.0,-0.0,0.0,-0.4,0.3,0.1,-0.76,0.05,0.64,0.0,0.0,0.0
1752859036997,200.0,-84.0,180.0,-9.0,0.0,-0.0,0.4,-0.1,0.7,0.11,-0.73,0.13,0.66,0.0,0.0,0.0
1752859037148,196.0,-70.0,-99.0,-9.0,3.0,-0.0,-0.3,-0.2,0.0,0.11,-0.71,0.18,0.67,0.0,0.0,0.0
1752859037198,196.0,-63.0,-102.0,-9.0,4.0,-1.0,-0.0,0.0,-0.0,0.1,-0.61,0.42,0.67,0.0,0.0,0.0
1752859037229,197.0,-56.0,-107.0,-8.0,6.0,-2.0,0.2,0.7,0.0,0.1,-0.57,0.51,0.64,0.0,0.0,0.0
1752859037265,200.0,-47.0,-117.0,-9.0,6.0,-1.0,-2.1,0.1,2.3,0.1,-0.53,0.6,0.59,0.0,0.0,0.0
1752859037315,202.0,-41.0,-125.0,-6.0,6.0,-5.0,0.7,-0.0,-0.1,0.1,-0.5,0.67,0.54,0.0,0.0,0.0
1752859037448,309.0,-26.0,-147.0,-4.0,5.0,-7.0,-0.0,0.0,0.5,0.1,-0.47,0.73,0.48,0.0,0.0,0.0
1752859037598,315.0,-20.0,-160.0,-3.0,3.0,-8.0,0.6,-0.1,0.1,0.09,-0.39,0.87,0.3,0.0,0.0,0.0
1752859037639,314.0,-20.0,-162.0,-3.0,3.0,-9.0,0.5,0.2,-0.1,0.1,-0.38,0.9,0.2,0.0,0.0,0.0
1752859037676,314.0,-20.0,-166.0,-3.0,2.0,-9.0,0.4,0.2,-0.2,0.11,-0.38,0.9,0.18,0.0,0.0,0.0
1752859037825,316.0,-20.0,-176.0,-3.0,1.0,-9.0,0.0,0.3,-0.3,0.13,-0.38,0.9,0.16,0.0,0.0,0.0
1752859037860,316.0,-20.0,-178.0,-2.0,0.0,-10.0,0.8,0.2,-1.1,0.15,-0.37,0.91,0.08,0.0,0.0,0.0
1752859037898,317.0,-19.0,-180.0,-3.0,-0.0,-10.0,0.5,0.0,-0.9,0.15,-0.36,0.92,0.06,0.0,0.0,0.0
1752859037949,316.0,-16.0,179.0,-3.0,1.0,-10.0,-0.3,0.9,-0.6,0.14,-0.37,0.92,0.05,0.0,0.0,0.0
1752859037991,316.0,-14.0,178.0,-3.0,1.0,-10.0,-0.3,1.0,-0.4,0.12,-0.37,0.92,0.03,0.0,0.0,0.0
1752859038133,317.0,-5.0,164.0,-0.0,-3.0,-9.0,0.4,-0.2,0.3,0.11,-0.37,0.92,-0.01,0.0,0.0,0.0
1752859038169,317.0,-4.0,162.0,-1.0,-2.0,-10.0,-0.1,0.6,-0.4,0.09,-0.37,0.92,-0.13,0.0,0.0,0.0
1752859038211,317.0,-3.0,160.0,-1.0,-3.0,-10.0,-0.1,0.5,-0.7,0.09,-0.36,0.92,-0.14,0.0,0.0,0.0
1752859038468,314.0,-5.0,156.0,-1.0,-3.0,-9.0,0.3,0.3,-0.2,0.09,-0.36,0.92,-0.15,0.0,0.0,0.0
1752859038504,313.0,-6.0,157.0,-1.0,-4.0,-8.0,-0.0,-0.2,0.5,0.13,-0.39,0.9,-0.16,0.0,0.0,0.0
1752859038651,311.0,-14.0,161.0,-2.0,-3.0,-9.0,0.0,0.4,-0.3,0.14,-0.39,0.9,-0.14,0.0,0.0,0.0
1752859038688,311.0,-17.0,162.0,-3.0,-2.0,-9.0,-0.1,0.5,-0.2,0.2,-0.41,0.89,-0.07,0.0,0.0,0.0
1752859038735,310.0,-19.0,163.0,-4.0,-2.0,-9.0,-0.1,0.2,-0.1,0.21,-0.41,0.88,-0.06,0.0,0.0,0.0
1752859038771,310.0,-22.0,164.0,-4.0,-2.0,-9.0,-0.3,0.3,0.2,0.23,-0.41,0.88,-0.04,0.0,0.0,0.0
1752859039464,238.0,-74.0,-133.0,-9.0,2.0,-1.0,0.2,0.2,0.8,0.31,-0.57,0.53,0.54,0.0,0.0,0.0
1752859039709,210.0,-88.0,2.0,-9.0,-0.0,1.0,0.2,-1.1,-0.3,0.29,-0.61,0.44,0.59,0.0,0.0,0.0
1752859039762,202.0,-74.0,87.0,-9.0,-4.0,-0.0,0.4,-0.7,-0.2,0.13,-0.7,-0.06,0.7,0.0,0.0,0.0
1752859039817,194.0,-71.0,95.0,-8.0,-3.0,-2.0,0.3,-3.0,-0.9,0.09,-0.7,-0.13,0.69,0.0,0.0,0.0
1752859039962,185.0,-67.0,107.0,-8.0,-4.0,-3.0,0.4,-0.4,0.6,0.03,-0.7,-0.25,0.66,0.0,0.0,0.0
1752859040000,155.0,-58.0,139.0,-8.0,-4.0,-4.0,0.3,-0.6,-0.0,-0.11,-0.69,-0.47,0.54,0.0,0.0,0.0
1752859040052,147.0,-56.0,144.0,-6.0,-2.0,-4.0,0.6,-1.9,0.2,-0.15,-0.67,-0.52,0.5,0.0,0.0,0.0
1752859040189,135.0,-56.0,150.0,-7.0,-3.0,-5.0,0.7,-0.5,-0.1,-0.17,-0.67,-0.54,0.48,0.0,0.0,0.0
1752859040223,132.0,-57.0,149.0,-8.0,-3.0,-5.0,0.5,-0.7,-0.3,-0.21,-0.64,-0.57,0.47,0.0,0.0,0.0
1752859040272,131.0,-59.0,149.0,-8.0,-4.0,-4.0,0.3,-0.9,-0.0,-0.22,-0.63,-0.57,0.48,0.0,0.0,0.0
1752859040323,128.0,-60.0,149.0,-8.0,-3.0,-4.0,0.2,-0.5,-0.0,-0.23,-0.63,-0.57,0.48,0.0,0.0,0.0
1752859040356,126.0,-61.0,149.0,-8.0,-4.0,-5.0,0.4,-1.3,-0.9,-0.24,-0.62,-0.57,0.48,0.0,0.0,0.0
1752859040406,124.0,-62.0,149.0,-9.0,-3.0,-4.0,0.3,-0.5,0.1,-0.25,-0.61,-0.57,0.48,0.0,0.0,0.0
1752859040456,124.0,-62.0,149.0,-8.0,-3.0,-4.0,0.7,-0.6,0.2,-0.25,-0.61,-0.57,0.48,0.0,0.0,0.0
1752859040489,127.0,-62.0,149.0,-9.0,-4.0,-4.0,0.2,-1.3,0.1,-0.25,-0.62,-0.56,0.49,0.0,0.0,0.0
1752859040523,131.0,-63.0,147.0,-9.0,-3.0,-4.0,0.0,-0.5,-0.1,-0.23,-0.63,-0.54,0.5,0.0,0.0,0.0
1752859040564,138.0,-64.0,144.0,-9.0,-3.0,-3.0,0.1,-0.4,0.3,-0.21,-0.65,-0.51,0.52,0.0,0.0,0.0
1752859040612,145.0,-66.0,141.0,-9.0,-3.0,-3.0,0.6,-1.0,-0.0,-0.18,-0.67,-0.46,0.55,0.0,0.0,0.0
1752859040658,153.0,-68.0,138.0,-9.0,-3.0,-2.0,-0.3,-0.8,0.3,-0.14,-0.7,-0.39,0.58,0.0,0.0,0.0
1752859040712,164.0,-71.0,133.0,-9.0,-3.0,-1.0,0.4,-1.2,0.8,-0.09,-0.72,-0.3,0.62,0.0,0.0,0.0
1752859040854,176.0,-75.0,128.0,-9.0,-2.0,-0.0,0.7,0.8,1.1,-0.04,-0.74,-0.2,0.64,0.0,0.0,0.0
1752859040896,217.0,-85.0,-176.0,-9.0,1.0,-0.0,0.2,-0.5,0.8,0.22,-0.67,0.28,0.65,0.0,0.0,0.0
1752859040930,229.0,-79.0,-123.0,-10.0,0.0,-1.0,-0.6,-1.6,-0.1,0.28,-0.62,0.41,0.61,0.0,0.0,0.0
1752859040977,238.0,-74.0,-128.0,-10.0,3.0,-1.0,-0.2,1.2,0.4,0.31,-0.58,0.5,0.57,0.0,0.0,0.0
1752859041014,240.0,-71.0,-131.0,-9.0,2.0,-2.0,-0.2,-0.3,0.3,0.32,-0.56,0.54,0.55,0.0,0.0,0.0
1752859041064,239.0,-70.0,-131.0,-9.0,2.0,-2.0,-0.1,-0.3,0.6,0.3,-0.56,0.55,0.54,0.0,0.0,0.0
1752859041200,236.0,-66.0,-131.0,-9.0,3.0,-3.0,0.1,0.0,0.2,0.29,-0.56,0.56,0.54,0.0,0.0,0.0
1752859041466,236.0,-70.0,-130.0,-9.0,2.0,-2.0,0.1,-0.3,0.2,0.29,-0.54,0.57,0.54,0.0,0.0,0.0
1752859041496,236.0,-71.0,-132.0,-9.0,2.0,-2.0,0.1,-0.5,0.1,0.29,-0.58,0.53,0.55,0.0,0.0,0.0
1752859041546,235.0,-72.0,-136.0,-9.0,2.0,-2.0,0.2,-0.2,-0.3,0.29,-0.59,0.51,0.55,0.0,0.0,0.0
1752859041581,236.0,-73.0,-141.0,-9.0,2.0,-2.0,0.2,0.3,0.0,0.29,-0.61,0.49,0.55,0.0,0.0,0.0
1752859041616,236.0,-73.0,-147.0,-8.0,2.0,-3.0,0.9,0.5,-0.3,0.29,-0.63,0.48,0.55,0.0,0.0,0.0
1752859041863,235.0,-72.0,-167.0,-9.0,0.0,-3.0,-0.3,0.9,0.3,0.28,-0.64,0.46,0.54,0.0,0.0,0.0
1752859041919,247.0,-66.0,173.0,-9.0,-1.0,-4.0,-0.8,0.7,0.3,0.3,-0.72,0.42,0.46,0.0,0.0,0.0
1752859042073,240.0,-52.0,169.0,-9.0,-2.0,-7.0,-2.1,0.5,-0.4,0.22,-0.83,0.33,0.39,0.0,0.0,0.0
1752859042213,227.0,-46.0,175.0,-4.0,0.0,-5.0,1.9,0.4,2.9,0.16,-0.87,0.29,0.36,0.0,0.0,0.0
1752859042263,215.0,-33.0,177.0,-3.0,1.0,-6.0,2.6,1.9,2.5,0.11,-0.91,0.29,0.27,0.0,0.0,0.0
1752859042397,234.0,-50.0,168.0,-14.0,-3.0,-2.0,-6.1,-1.2,3.4,0.12,-0.91,0.29,0.26,0.0,0.0,0.0
1752859042529,227.0,-82.0,81.0,-9.0,-2.0,-4.0,0.5,-1.3,-3.7,0.23,-0.82,0.24,0.46,0.0,0.0,0.0
1752859042667,223.0,-87.0,2.0,-11.0,-1.0,1.0,-1.1,-0.4,1.0,0.28,-0.64,0.2,0.68,0.0,0.0,0.0
1752859042718,224.0,-87.0,178.0,-10.0,-0.0,1.0,0.3,0.5,0.9,0.26,-0.67,0.24,0.66,0.0,0.0,0.0
1752859042768,224.0,-86.0,177.0,-9.0,-0.0,1.0,0.9,0.6,1.0,0.26,-0.68,0.23,0.65,0.0,0.0,0.0
1752859042918,228.0,-84.0,174.0,-10.0,-2.0,-0.0,-0.2,-0.4,0.2,0.27,-0.68,0.23,0.64,0.0,0.0,0.0
1752859042952,228.0,-83.0,107.0,-10.0,-2.0,-0.0,-0.1,-0.3,-0.2,0.28,-0.69,0.21,0.63,0.0,0.0,0.0
1752859042985,229.0,-82.0,107.0,-10.0,-2.0,-1.0,-0.1,-0.4,-0.3,0.29,-0.69,0.21,0.63,0.0,0.0,0.0
1752859043035,230.0,-81.0,111.0,-10.0,-2.0,-2.0,-0.5,-0.6,-1.4,0.29,-0.7,0.21,0.62,0.0,0.0,0.0
1752859043069,229.0,-79.0,123.0,-10.0,-2.0,-3.0,-0.7,-0.2,-1.9,0.28,-0.71,0.2,0.61,0.0,0.0,0.0
1752859043321,226.0,-58.0,176.0,-7.0,-1.0,-6.0,0.3,0.6,4.9,0.27,-0.73,0.2,0.59,0.0,0.0,0.0
1752859043471,240.0,-52.0,166.0,-12.0,0.0,-1.0,-4.2,1.8,4.6,0.13,-0.88,0.35,0.28,0.0,0.0,0.0
1752859043506,239.0,-66.0,153.0,-13.0,2.0,-5.0,0.0,0.0,0.0,0.27,-0.8,0.27,0.46,0.0,0.0,0.0
1752859044238,230.0,-47.0,178.0,-5.0,1.0,-4.0,1.7,1.1,2.1,0.17,-0.84,0.36,0.36,0.0,0.0,0.0
1752859044292,230.0,-47.0,176.0,-7.0,0.0,-3.0,0.4,0.6,3.4,0.17,-0.85,0.34,0.36,0.0,0.0,0.0
1752859044328,231.0,-50.0,174.0,-12.0,-2.0,-1.0,-4.2,-0.9,5.0,0.18,-0.85,0.32,0.38,0.0,0.0,0.0
1752859044470,228.0,-79.0,107.0,-8.0,-1.0,-5.0,0.0,0.0,-3.7,0.2,-0.83,0.29,0.43,0.0,0.0,0.0
1752859044513,228.0,-79.0,96.0,-14.0,-4.0,-0.0,-4.2,-2.6,0.1,0.29,-0.69,0.17,0.64,0.0,0.0,0.0
1752859044667,231.0,-75.0,125.0,-9.0,-3.0,-2.0,1.2,0.7,-0.7,0.29,-0.7,0.18,0.63,0.0,0.0,0.0
1752859044701,230.0,-73.0,133.0,-9.0,-2.0,-4.0,0.0,0.1,-1.3,0.27,-0.76,0.16,0.57,0.0,0.0,0.0
1752859044743,228.0,-70.0,145.0,-10.0,-2.0,-5.0,-1.1,-0.4,-1.5,0.24,-0.78,0.17,0.55,0.0,0.0,0.0
1752859044784,225.0,-63.0,160.0,-9.0,-1.0,-5.0,-0.5,0.3,-0.6,0.21,-0.82,0.18,0.51,0.0,0.0,0.0
1752859044821,221.0,-57.0,170.0,-9.0,-1.0,-4.0,-1.3,0.0,1.3,0.18,-0.84,0.21,0.46,0.0,0.0,0.0
1752859045070,216.0,-45.0,-180.0,-7.0,-1.0,-3.0,-4.4,0.1,3.5,0.15,-0.86,0.24,0.42,0.0,0.0,0.0
1752859045118,223.0,-76.0,158.0,-6.0,1.0,-7.0,3.5,1.6,-5.9,0.23,-0.75,0.22,0.58,0.0,0.0,0.0
1752859045361,225.0,-79.0,145.0,-8.0,-1.0,-3.0,1.3,0.1,-0.9,0.26,-0.69,0.19,0.65,0.0,0.0,0.0
1752859045403,224.0,-74.0,157.0,-9.0,-1.0,-4.0,-0.0,-0.0,-0.7,0.23,-0.76,0.22,0.56,0.0,0.0,0.0
1752859045542,221.0,-47.0,178.0,-8.0,0.0,-3.0,-1.0,0.3,3.6,0.14,-0.87,0.29,0.38,0.0,0.0,0.0
1752859045580,218.0,-43.0,179.0,-7.0,0.0,-3.0,-0.1,0.3,4.0,0.13,-0.88,0.3,0.35,0.0,0.0,0.0
1752859045628,218.0,-43.0,178.0,-5.0,-0.0,-4.0,0.7,0.4,3.7,0.13,-0.88,0.3,0.34,0.0,0.0,0.0
1752859045783,224.0,-76.0,149.0,-7.0,-2.0,-6.0,2.2,-0.4,-4.4,0.23,-0.77,0.21,0.56,0.0,0.0,0.0
1752859046026,225.0,-82.0,94.0,-8.0,-1.0,-4.0,0.8,0.2,1.3,0.26,-0.7,0.18,0.64,0.0,0.0,0.0
1752859046067,224.0,-78.0,139.0,-9.0,-1.0,-0.0,0.9,0.1,1.5,0.25,-0.73,0.19,0.6,0.0,0.0,0.0
1752859046211,221.0,-78.0,156.0,-9.0,-1.0,-1.0,0.3,-0.5,0.1,0.24,-0.75,0.2,0.59,0.0,0.0,0.0
1752859046253,220.0,-80.0,154.0,-10.0,-1.0,-1.0,-0.2,-0.5,0.3,0.22,-0.73,0.2,0.61,0.0,0.0,0.0
1752859046290,220.0,-81.0,151.0,-10.0,-1.0,-1.0,0.0,0.0,0.0,0.23,-0.73,0.2,0.62,0.0,0.0,0.0
1752859046335,220.0,-82.0,147.0,-10.0,-1.0,-1.0,-0.1,-0.3,0.5,0.23,-0.72,0.2,0.62,0.0,0.0,0.0
1752859046375,220.0,-81.0,147.0,-10.0,-1.0,-1.0,-0.1,-0.3,0.6,0.23,-0.72,0.2,0.62,0.0,0.0,0.0
1752859046428,220.0,-81.0,146.0,-10.0,-1.0,-0.0,0.1,-0.2,0.8,0.23,-0.73,0.2,0.62,0.0,0.0,0.0
1752859046481,220.0,-81.0,145.0,-9.0,-1.0,-1.0,0.4,-0.3,0.8,0.23,-0.73,0.19,0.62,0.0,0.0,0.0
1752859046516,221.0,-80.0,146.0,-9.0,-1.0,-1.0,0.4,-0.3,0.7,0.23,-0.73,0.19,0.62,0.0,0.0,0.0
1752859046566,221.0,-81.0,143.0,-9.0,-1.0,-1.0,0.3,-0.2,0.3,0.23,-0.73,0.19,0.62,0.0,0.0,0.0
1752859047137,222.0,-80.0,130.0,-10.0,-1.0,-1.0,0.1,-0.1,0.2,0.24,-0.72,0.17,0.62,0.0,0.0,0.0
1752859047184,222.0,-80.0,127.0,-10.0,-1.0,-1.0,0.1,-0.1,0.2,0.24,-0.72,0.17,0.63,0.0,0.0,0.0
1752859047237,222.0,-80.0,127.0,-9.0,-1.0,-1.0,0.2,-0.0,0.2,0.24,-0.72,0.17,0.63,0.0,0.0,0.0
1752859047287,222.0,-80.0,128.0,-10.0,-1.0,-1.0,0.1,-0.1,0.2,0.24,-0.72,0.17,0.63,0.0,0.0,0.0
1752859047328,222.0,-81.0,128.0,-9.0,-1.0,-1.0,0.1,-0.2,0.2,0.24,-0.72,0.17,0.63,0.0,0.0,0.0
1752859047378,222.0,-81.0,128.0,-10.0,-1.0,-1.0,0.0,-0.2,0.1,0.24,-0.72,0.17,0.63,0.0,0.0,0.0
1752859047435,222.0,-81.0,128.0,-10.0,-1.0,-1.0,0.1,-0.1,0.0,0.24,-0.72,0.17,0.63,0.0,0.0,0.0
1752859047478,222.0,-81.0,127.0,-10.0,-1.0,-1.0,0.0,-0.1,0.1,0.24,-0.72,0.17,0.63,0.0,0.0,0.0
1752859047931,222.0,-81.0,126.0,-10.0,-1.0,-1.0,0.1,-0.1,0.0,0.24,-0.72,0.17,0.63,0.0,0.0,0.0
1752859048279,222.0,-81.0,125.0,-10.0,-1.0,-1.0,-0.0,-0.1,0.0,0.24,-0.72,0.17,0.63,0.0,0.0,0.0
1752859048635,221.0,-81.0,127.0,-10.0,-1.0,-1.0,0.1,-0.1,0.1,0.24,-0.72,0.17,0.63,0.0,0.0,0.0
1752859048686,221.0,-81.0,127.0,-10.0,-1.0,-1.0,0.1,-0.1,0.1,0.24,-0.72,0.17,0.63,0.0,0.0,0.0
1752859048819,221.0,-81.0,127.0,-10.0,-1.0,-1.0,0.0,-0.1,0.0,0.24,-0.72,0.17,0.63,0.0,0.0,0.0
1752859048969,221.0,-81.0,128.0,-10.0,-1.0,-1.0,0.1,-0.1,0.2,0.24,-0.72,0.17,0.63,0.0,0.0,0.0
1752859049019,221.0,-81.0,129.0,-10.0,-1.0,-1.0,0.0,-0.1,0.1,0.24,-0.72,0.17,0.63,0.0,0.0,0.0
1752859049050,221.0,-81.0,129.0,-10.0,-1.0,-1.0,0.0,0.0,0.0,0.24,-0.72,0.17,0.63,0.0,0.0,0.0
1752859049086,221.0,-81.0,129.0,-10.0,-1.0,-1.0,0.1,-0.0,-0.1,0.24,-0.72,0.17,0.63,0.0,0.0,0.0
1752859049237,221.0,-81.0,129.0,-10.0,-1.0,-1.0,0.0,-0.1,0.1,0.24,-0.72,0.17,0.63,0.0,0.0,0.0
1752859049287,221.0,-81.0,130.0,-10.0,-1.0,-1.0,0.1,-0.0,0.1,0.24,-0.72,0.17,0.63,0.0,0.0,0.0
1752859049638,221.0,-81.0,131.0,-10.0,-1.0,-1.0,0.0,-0.1,-0.0,0.24,-0.72,0.17,0.63,0.0,0.0,0.0
1752859049992,216.0,-74.0,165.0,-9.0,-1.0,-3.0,0.0,-0.1,-0.0,0.19,-0.77,0.19,0.58,0.0,0.0,0.0
1752859050592,204.0,-50.0,-172.0,-9.0,-0.0,-6.0,-0.1,0.2,0.4,0.09,-0.86,0.28,0.42,0.0,0.0,0.0
1752859050628,204.0,-48.0,-172.0,-8.0,1.0,-5.0,-0.5,0.1,1.2,0.09,-0.86,0.31,0.4,0.0,0.0,0.0
1752859050679,204.0,-45.0,-171.0,-6.0,1.0,-6.0,0.9,-0.4,0.5,0.08,-0.86,0.32,0.38,0.0,0.0,0.0
1752859050730,223.0,-44.0,-171.0,-3.0,2.0,-5.0,3.6,1.0,2.8,0.08,-0.86,0.34,0.37,0.0,0.0,0.0
1752859050764,211.0,-45.0,-173.0,-8.0,1.0,1.0,-5.2,-1.8,8.9,0.1,-0.85,0.35,0.37,0.0,0.0,0.0
1752859050814,220.0,-55.0,-179.0,-20.0,-5.0,5.0,-13.8,-2.9,9.1,0.16,-0.83,0.32,0.43,0.0,0.0,0.0
1752859050847,231.0,-78.0,123.0,-1.0,3.0,-16.0,8.2,4.8,-16.2,0.26,-0.75,0.22,0.57,0.0,0.0,0.0
1752859050894,233.0,-74.0,58.0,-9.0,-3.0,-8.0,0.8,-0.5,-9.2,0.33,-0.65,0.15,0.67,0.0,0.0,0.0
1752859051131,233.0,-79.0,90.0,-10.0,-3.0,0.0,-0.2,-0.9,-0.3,0.35,-0.64,0.14,0.67,0.0,0.0,0.0
1752859066698,359.0,-56.0,104.0,-8.0,-5.0,-1.0,-0.1,-0.0,0.2,0.66,-0.42,0.63,0.0,0.0,0.0,0.0
1752859066739,359.0,-56.0,105.0,-8.0,-5.0,-1.0,0.0,0.0,-0.0,0.65,-0.42,0.63,0.0,0.0,0.0,0.0
1752859066785,359.0,-56.0,105.0,-8.0,-5.0,-2.0,-0.1,-0.0,-0.0,0.65,-0.42,0.63,0.01,0.0,0.0,0.0
1752859066837,359.0,-56.0,105.0,-8.0,-5.0,-1.0,-0.1,-0.0,0.1,0.65,-0.42,0.63,0.01,0.0,0.0,0.0
1752859066979,359.0,-56.0,106.0,-8.0,-5.0,-1.0,0.0,0.0,0.0,0.65,-0.42,0.63,0.01,0.0,0.0,0.0
1752859067125,359.0,-56.0,105.0,-8.0,-5.0,-1.0,-0.1,-0.0,0.0,0.65,-0.42,0.63,0.01,0.0,0.0,0.0
1752859067176,359.0,-56.0,105.0,-8.0,-5.0,-1.0,0.0,0.0,-0.0,0.65,-0.42,0.63,0.01,0.0,0.0,0.0
1752859067326,359.0,-55.0,105.0,-8.0,-5.0,-1.0,-0.1,-0.0,0.1,0.65,-0.42,0.63,0.01,0.0,0.0,0.0
1752859067379,359.0,-55.0,105.0,-8.0,-5.0,-1.0,-0.1,-0.0,0.1,0.65,-0.43,0.63,0.01,0.0,0.0,0.0
1752859067526,359.0,-55.0,105.0,-8.0,-5.0,-2.0,0.0,0.0,0.0,0.65,-0.43,0.63,0.01,0.0,0.0,0.0
1752859067576,359.0,-55.0,106.0,-8.0,-5.0,-2.0,-0.0,-0.0,-0.0,0.65,-0.43,0.63,0.01,0.0,0.0,0.0
1752859067730,359.0,-55.0,106.0,-8.0,-5.0,-2.0,-0.0,0.0,-0.0,0.65,-0.43,0.63,0.01,0.0,0.0,0.0
1752859067779,359.0,-55.0,106.0,-8.0,-5.0,-2.0,-0.0,0.0,0.0,0.65,-0.43,0.63,0.01,0.0,0.0,0.0
1752859067858,359.0,-55.0,106.0,-8.0,-5.0,-2.0,0.0,0.0,-0.0,0.65,-0.43,0.63,0.01,0.0,0.0,0.0
1752859067961,359.0,-55.0,106.0,-8.0,-5.0,-2.0,-0.1,-0.0,0.0,0.65,-0.43,0.63,0.01,0.0,0.0,0.0
1752859068000,359.0,-55.0,106.0,-8.0,-5.0,-1.0,-0.0,-0.0,0.1,0.65,-0.43,0.63,0.01,0.0,0.0,0.0
1752859068040,359.0,-55.0,106.0,-8.0,-5.0,-1.0,-0.1,-0.0,0.1,0.65,-0.43,0.63,0.01,0.0,0.0,0.0
1752859068232,358.0,-55.0,107.0,-8.0,-5.0,-2.0,-0.1,-0.1,0.1,0.65,-0.43,0.63,0.01,0.0,0.0,0.0
1752859068427,358.0,-55.0,107.0,-8.0,-5.0,-2.0,0.0,0.0,0.0,0.65,-0.43,0.63,0.01,0.0,0.0,0.0
1752859068470,358.0,-55.0,107.0,-8.0,-5.0,-2.0,-0.2,-0.0,0.1,0.65,-0.43,0.63,0.01,0.0,0.0,0.0
1752859068511,358.0,-55.0,107.0,-8.0,-5.0,-2.0,-0.1,-0.0,0.1,0.65,-0.43,0.63,0.01,0.0,0.0,0.0
1752859068549,358.0,-55.0,107.0,-8.0,-5.0,-2.0,0.1,0.0,-0.1,0.65,-0.43,0.63,0.01,0.0,0.0,0.0
1752859068599,358.0,-55.0,107.0,-8.0,-5.0,-2.0,-0.1,-0.0,-0.0,0.65,-0.43,0.63,0.01,0.0,0.0,0.0
1752859068641,358.0,-55.0,107.0,-8.0,-5.0,-2.0,0.0,0.0,-0.0,0.65,-0.43,0.63,0.01,0.0,0.0,0.0
1752859068787,358.0,-55.0,107.0,-8.0,-5.0,-2.0,-0.1,0.0,0.0,0.64,-0.43,0.63,0.01,0.0,0.0,0.0
1752859068930,358.0,-55.0,107.0,-8.0,-5.0,-2.0,-0.1,0.0,0.0,0.64,-0.43,0.63,0.01,0.0,0.0,0.0
1752859068978,358.0,-55.0,108.0,-8.0,-5.0,-2.0,-0.1,-0.0,0.1,0.64,-0.43,0.63,0.01,0.0,0.0,0.0
1752859069021,358.0,-55.0,107.0,-8.0,-5.0,-2.0,-0.1,-0.0,0.0,0.64,-0.43,0.63,0.01,0.0,0.0,0.0
1752859069062,358.0,-55.0,107.0,-8.0,-5.0,-2.0,-0.1,0.0,-0.0,0.64,-0.43,0.63,0.01,0.0,0.0,0.0
1752859069207,358.0,-55.0,107.0,-8.0,-5.0,-2.0,-0.0,0.1,-0.5,0.64,-0.43,0.63,0.01,0.0,0.0,0.0
1752859069451,359.0,-55.0,108.0,-8.0,-5.0,-2.0,0.1,0.1,-0.2,0.64,-0.43,0.63,0.01,0.0,0.0,0.0
1752859069699,359.0,-54.0,109.0,-8.0,-5.0,-2.0,-0.0,0.0,0.2,0.64,-0.44,0.63,0.01,0.0,0.0,0.0
1752859069766,359.0,-54.0,110.0,-8.0,-5.0,-2.0,-0.1,0.0,0.1,0.63,-0.44,0.64,0.01,0.0,0.0,0.0
1752859069993,359.0,-54.0,110.0,-8.0,-5.0,-2.0,-0.0,0.0,0.1,0.63,-0.44,0.64,0.01,0.0,0.0,0.0
1752859070243,359.0,-54.0,110.0,-8.0,-5.0,-2.0,0.0,0.0,-0.1,0.63,-0.44,0.64,0.01,0.0,0.0,0.0
1752859070491,359.0,-54.0,110.0,-8.0,-5.0,-2.0,-0.2,-0.0,0.0,0.63,-0.44,0.64,0.01,0.0,0.0,0.0
1752859070595,359.0,-54.0,110.0,-8.0,-5.0,-2.0,-0.1,0.0,0.0,0.63,-0.44,0.64,0.01,0.0,0.0,0.0
1752859070644,359.0,-54.0,110.0,-8.0,-5.0,-2.0,-0.1,-0.0,0.0,0.63,-0.44,0.64,0.01,0.0,0.0,0.0
1752859070794,359.0,-54.0,110.0,-8.0,-5.0,-2.0,-0.1,-0.0,0.1,0.63,-0.44,0.64,0.01,0.0,0.0,0.0
1752859071141,359.0,-54.0,111.0,-8.0,-5.0,-2.0,-0.1,-0.0,0.0,0.63,-0.44,0.64,0.01,0.0,0.0,0.0
1752859071185,359.0,-54.0,111.0,-8.0,-5.0,-2.0,0.0,0.0,0.0,0.63,-0.45,0.64,0.01,0.0,0.0,0.0
1752859071332,359.0,-54.0,111.0,-8.0,-5.0,-2.0,-0.2,0.0,0.1,0.63,-0.45,0.64,0.01,0.0,0.0,0.0
1752859071375,358.0,-54.0,111.0,-8.0,-5.0,-2.0,0.0,0.0,0.0,0.63,-0.45,0.64,0.01,0.0,0.0,0.0
1752859071415,358.0,-54.0,111.0,-8.0,-5.0,-2.0,-0.1,0.0,0.0,0.63,-0.45,0.64,0.01,0.0,0.0,0.0
1752859071556,358.0,-54.0,111.0,-8.0,-5.0,-2.0,-0.1,-0.0,0.0,0.63,-0.45,0.64,0.01,0.0,0.0,0.0
1752859072294,358.0,-54.0,111.0,-8.0,-5.0,-2.0,0.0,-0.0,0.0,0.63,-0.45,0.64,0.01,0.0,0.0,0.0
1752859072340,358.0,-54.0,112.0,-8.0,-5.0,-2.0,-0.1,-0.1,-0.0,0.63,-0.45,0.64,0.01,0.0,0.0,0.0
1752859072388,358.0,-54.0,112.0,-8.0,-5.0,-2.0,-0.0,0.0,0.0,0.63,-0.45,0.64,0.01,0.0,0.0,0.0
1752859072430,358.0,-54.0,111.0,-8.0,-5.0,-2.0,-0.0,-0.0,0.1,0.63,-0.45,0.64,0.01,0.0,0.0,0.0
1752859072474,358.0,-54.0,111.0,-8.0,-5.0,-2.0,-0.1,-0.1,0.1,0.63,-0.45,0.64,0.01,0.0,0.0,0.0
1752859072508,358.0,-54.0,111.0,-8.0,-5.0,-2.0,-0.1,0.0,0.0,0.63,-0.45,0.64,0.01,0.0,0.0,0.0
1752859072559,358.0,-54.0,111.0,-8.0,-5.0,-2.0,-0.1,0.0,-0.0,0.63,-0.45,0.64,0.01,0.0,0.0,0.0
1752859072606,358.0,-54.0,111.0,-8.0,-5.0,-2.0,-0.1,-0.1,0.1,0.63,-0.45,0.64,0.01,0.0,0.0,0.0
1752859072741,359.0,-54.0,111.0,-8.0,-5.0,-2.0,-0.1,0.0,0.0,0.63,-0.45,0.64,0.01,0.0,0.0,0.0
1752859072786,358.0,-54.0,112.0,-8.0,-5.0,-2.0,-0.1,-0.0,0.0,0.62,-0.45,0.64,0.01,0.0,0.0,0.0
1752859072940,358.0,-54.0,112.0,-8.0,-5.0,-2.0,-0.0,0.1,-0.0,0.62,-0.45,0.64,0.01,0.0,0.0,0.0
1752859072979,358.0,-54.0,112.0,-8.0,-5.0,-2.0,-0.2,-0.0,0.1,0.62,-0.45,0.64,0.01,0.0,0.0,0.0
1752859073019,358.0,-54.0,112.0,-8.0,-5.0,-2.0,-0.0,0.0,0.0,0.62,-0.45,0.64,0.01,0.0,0.0,0.0
1752859073049,358.0,-54.0,112.0,-8.0,-5.0,-2.0,-0.0,0.0,-0.1,0.62,-0.45,0.64,0.01,0.0,0.0,0.0
1752859073100,358.0,-54.0,112.0,-8.0,-5.0,-2.0,-0.1,-0.0,0.1,0.62,-0.45,0.64,0.01,0.0,0.0,0.0
1752859073344,358.0,-54.0,112.0,-8.0,-5.0,-2.0,-0.0,0.1,-0.0,0.62,-0.45,0.64,0.01,0.0,0.0,0.0
1752859073493,358.0,-54.0,112.0,-8.0,-5.0,-2.0,-0.2,-0.0,0.1,0.62,-0.45,0.64,0.01,0.0,0.0,0.0
1752859073629,358.0,-54.0,112.0,-8.0,-5.0,-2.0,-0.0,0.0,0.0,0.62,-0.45,0.64,0.01,0.0,0.0,0.0
1752859073679,358.0,-54.0,112.0,-8.0,-5.0,-2.0,-0.1,-0.0,-0.0,0.62,-0.45,0.64,0.01,0.0,0.0,0.0
1752859073712,358.0,-54.0,112.0,-8.0,-5.0,-2.0,-0.0,0.0,0.0,0.62,-0.45,0.64,0.01,0.0,0.0,0.0
1752859073763,358.0,-54.0,112.0,-8.0,-5.0,-2.0,-0.0,0.0,0.0,0.62,-0.45,0.64,0.01,0.0,0.0,0.0
1752859073798,358.0,-54.0,112.0,-8.0,-5.0,-2.0,-0.1,-0.0,0.1,0.62,-0.45,0.64,0.01,0.0,0.0,0.0
1752859073856,358.0,-54.0,112.0,-8.0,-5.0,-2.0,-0.0,0.1,0.0,0.62,-0.45,0.64,0.01,0.0,0.0,0.0
1752859073990,358.0,-54.0,112.0,-8.0,-5.0,-2.0,-0.2,0.0,0.0,0.62,-0.45,0.64,0.01,0.0,0.0,0.0
1752859074044,358.0,-54.0,113.0,-8.0,-5.0,-2.0,-0.1,0.1,0.0,0.62,-0.45,0.64,0.01,0.0,0.0,0.0
1752859074087,358.0,-54.0,113.0,-8.0,-5.0,-2.0,-0.0,0.1,-0.1,0.62,-0.45,0.64,0.01,0.0,0.0,0.0
1752859074221,358.0,-53.0,117.0,-8.0,-5.0,-3.0,-0.0,0.1,0.0,0.62,-0.45,0.65,0.01,0.0,0.0,0.0
1752859074369,358.0,-53.0,118.0,-8.0,-5.0,-3.0,-0.1,0.0,0.2,0.6,-0.45,0.66,0.01,0.0,0.0,0.0
1752859074416,358.0,-52.0,122.0,-8.0,-5.0,-3.0,0.2,0.1,-0.0,0.58,-0.46,0.67,0.01,0.0,0.0,0.0
1752859074455,358.0,-52.0,123.0,-8.0,-5.0,-3.0,-0.2,-0.0,-0.1,0.58,-0.46,0.67,0.01,0.0,0.0,0.0
1752859074846,357.0,-54.0,116.0,-8.0,-5.0,-3.0,-0.1,-0.0,-0.2,0.59,-0.46,0.66,0.01,0.0,0.0,0.0
1752859074892,357.0,-54.0,115.0,-8.0,-5.0,-3.0,0.0,0.1,-0.4,0.61,-0.45,0.65,0.01,0.0,0.0,0.0
1752859075143,358.0,-53.0,116.0,-8.0,-5.0,-2.0,-0.3,-0.1,0.3,0.61,-0.45,0.65,0.01,0.0,0.0,0.0
1752859075494,358.0,-52.0,120.0,-8.0,-5.0,-3.0,-0.1,-0.0,0.1,0.59,-0.46,0.66,0.01,0.0,0.0,0.0
1752859075742,358.0,-52.0,119.0,-8.0,-5.0,-3.0,-0.1,-0.0,-0.0,0.59,-0.46,0.66,0.01,0.0,0.0,0.0
1752859075784,357.0,-53.0,119.0,-8.0,-5.0,-3.0,-0.0,0.0,-0.1,0.6,-0.46,0.66,0.01,0.0,0.0,0.0
1752859075963,358.0,-53.0,119.0,-8.0,-5.0,-3.0,-0.0,0.1,0.0,0.59,-0.46,0.66,0.01,0.0,0.0,0.0
1752859076003,358.0,-53.0,119.0,-8.0,-5.0,-3.0,-0.0,0.0,0.1,0.59,-0.46,0.66,0.01,0.0,0.0,0.0
1752859076150,358.0,-53.0,119.0,-8.0,-5.0,-3.0,-0.1,-0.0,0.0,0.59,-0.46,0.66,0.01,0.0,0.0,0.0
1752859076193,358.0,-53.0,119.0,-8.0,-5.0,-3.0,-0.0,-0.0,-0.1,0.59,-0.46,0.66,0.01,0.0,0.0,0.0
1752859076383,358.0,-53.0,119.0,-8.0,-5.0,-3.0,-0.1,0.0,0.0,0.59,-0.46,0.66,0.01,0.0,0.0,0.0
1752859076532,358.0,-53.0,118.0,-8.0,-5.0,-3.0,-0.1,-0.0,0.0,0.6,-0.46,0.66,0.01,0.0,0.0,0.0
1752859076606,358.0,-53.0,118.0,-8.0,-5.0,-3.0,-0.1,0.1,0.0,0.6,-0.46,0.66,0.01,0.0,0.0,0.0
1752859076853,357.0,-53.0,118.0,-8.0,-5.0,-3.0,-0.1,0.0,-0.0,0.6,-0.46,0.66,0.01,0.0,0.0,0.0
1752859076902,358.0,-53.0,118.0,-8.0,-5.0,-3.0,-0.0,0.0,0.1,0.6,-0.46,0.66,0.01,0.0,0.0,0.0
1752859077481,357.0,-53.0,119.0,-8.0,-5.0,-3.0,-0.2,0.0,0.0,0.59,-0.46,0.66,0.01,0.0,0.0,0.0
1752859077622,357.0,-53.0,119.0,-8.0,-5.0,-3.0,-0.2,-0.0,0.2,0.59,-0.46,0.66,0.01,0.0,0.0,0.0
1752859077784,357.0,-53.0,119.0,-8.0,-5.0,-3.0,-0.0,0.1,-0.1,0.59,-0.46,0.66,0.01,0.0,0.0,0.0
1752859077825,357.0,-53.0,119.0,-8.0,-5.0,-3.0,-0.1,-0.0,0.0,0.59,-0.46,0.66,0.01,0.0,0.0,0.0
1752859077874,357.0,-53.0,118.0,-8.0,-5.0,-3.0,-0.0,0.0,0.0,0.6,-0.46,0.66,0.01,0.0,0.0,0.0
1752859077903,357.0,-53.0,118.0,-8.0,-5.0,-3.0,-0.1,0.0,0.0,0.6,-0.46,0.66,0.01,0.0,0.0,0.0
1752859077946,357.0,-53.0,118.0,-8.0,-5.0,-3.0,0.0,0.1,-0.1,0.6,-0.46,0.66,0.01,0.0,0.0,0.0
1752859077992,357.0,-53.0,118.0,-8.0,-5.0,-3.0,-0.2,-0.0,0.0,0.6,-0.46,0.66,0.01,0.0,0.0,0.0
1752859078035,358.0,-53.0,118.0,-8.0,-5.0,-3.0,0.0,0.0,0.0,0.6,-0.46,0.66,0.01,0.0,0.0,0.0
1752859078088,358.0,-53.0,119.0,-8.0,-5.0,-3.0,0.0,0.1,-0.0,0.6,-0.46,0.66,0.01,0.0,0.0,0.0
1752859078126,358.0,-52.0,119.0,-8.0,-5.0,-3.0,-0.1,-0.0,0.1,0.59,-0.46,0.66,0.01,0.0,0.0,0.0
1752859078165,358.0,-52.0,119.0,-8.0,-5.0,-3.0,-0.1,0.0,0.0,0.59,-0.46,0.66,0.01,0.0,0.0,0.0
1752859078204,358.0,-52.0,119.0,-8.0,-5.0,-3.0,0.2,0.1,-0.2,0.59,-0.46,0.66,0.01,0.0,0.0,0.0
1752859078255,358.0,-52.0,120.0,-8.0,-5.0,-3.0,-0.2,-0.0,0.0,0.59,-0.46,0.66,0.01,0.0,0.0,0.0
1752859078286,358.0,-52.0,120.0,-8.0,-5.0,-3.0,-0.0,-0.0,0.3,0.59,-0.46,0.66,0.01,0.0,0.0,0.0
1752859078323,358.0,-52.0,120.0,-8.0,-5.0,-3.0,0.0,0.0,-0.0,0.59,-0.46,0.66,0.01,0.0,0.0,0.0
1752859078373,358.0,-52.0,120.0,-8.0,-5.0,-3.0,-0.2,-0.0,0.0,0.59,-0.47,0.66,0.01,0.0,0.0,0.0
1752859078521,358.0,-52.0,120.0,-8.0,-5.0,-3.0,-0.2,0.0,0.0,0.59,-0.47,0.66,0.01,0.0,0.0,0.0
1752859078668,357.0,-52.0,119.0,-8.0,-5.0,-3.0,-0.0,0.1,-0.1,0.59,-0.46,0.66,0.01,0.0,0.0,0.0
1752859078732,357.0,-53.0,119.0,-8.0,-5.0,-3.0,-0.0,0.1,0.0,0.6,-0.46,0.66,0.01,0.0,0.0,0.0
1752859078768,357.0,-53.0,118.0,-8.0,-5.0,-3.0,-0.0,0.1,0.2,0.6,-0.46,0.65,0.01,0.0,0.0,0.0
1752859078814,357.0,-53.0,118.0,-8.0,-5.0,-3.0,-0.1,-0.0,0.0,0.6,-0.46,0.65,0.02,0.0,0.0,0.0
1752859078866,357.0,-53.0,118.0,-8.0,-5.0,-3.0,0.0,-0.0,0.0,0.6,-0.46,0.65,0.02,0.0,0.0,0.0
1752859078902,357.0,-53.0,118.0,-8.0,-5.0,-3.0,-0.1,0.1,0.1,0.6,-0.46,0.65,0.02,0.0,0.0,0.0
1752859079053,356.0,-53.0,118.0,-8.0,-5.0,-3.0,0.1,0.6,0.1,0.6,-0.46,0.65,0.02,0.0,0.0,0.0
1752859079087,356.0,-54.0,117.0,-8.0,-5.0,-2.0,0.0,0.3,0.5,0.6,-0.46,0.65,0.02,0.0,0.0,0.0
1752859079133,356.0,-55.0,116.0,-8.0,-5.0,-2.0,-0.2,-0.1,1.0,0.61,-0.45,0.65,0.02,0.0,0.0,0.0
1752859079267,352.0,-59.0,108.0,-9.0,-5.0,-1.0,-0.5,-0.1,0.2,0.62,-0.44,0.65,0.03,0.0,0.0,0.0
1752859079320,351.0,-61.0,102.0,-9.0,-5.0,-1.0,-0.5,-0.2,0.3,0.66,-0.41,0.62,0.05,0.0,0.0,0.0
1752859079454,349.0,-63.0,81.0,-9.0,-4.0,1.0,-0.5,0.2,0.4,0.68,-0.4,0.61,0.06,0.0,0.0,0.0
1752859079504,348.0,-63.0,74.0,-9.0,-4.0,2.0,-0.3,0.0,0.3,0.75,-0.35,0.56,0.08,0.0,0.0,0.0
1752859079550,348.0,-62.0,65.0,-9.0,-4.0,2.0,-0.1,0.1,-0.3,0.77,-0.34,0.54,0.08,0.0,0.0,0.0
1752859079688,344.0,-58.0,41.0,-8.0,-3.0,4.0,0.1,0.0,-0.4,0.78,-0.32,0.52,0.09,0.0,0.0,0.0
1752859079739,342.0,-57.0,35.0,-8.0,-3.0,4.0,-0.5,-0.3,-1.0,0.84,-0.26,0.46,0.13,0.0,0.0,0.0
1752859079767,340.0,-54.0,29.0,-8.0,-3.0,5.0,-0.1,-0.3,-0.5,0.85,-0.24,0.44,0.15,0.0,0.0,0.0
1752859079820,339.0,-53.0,25.0,-8.0,-3.0,5.0,0.1,-0.3,-0.3,0.86,-0.23,0.42,0.16,0.0,0.0,0.0
1752859080061,338.0,-48.0,20.0,-7.0,-2.0,6.0,0.1,0.0,-0.1,0.87,-0.21,0.41,0.17,0.0,0.0,0.0
1752859080520,340.0,-48.0,23.0,-7.0,-3.0,6.0,-0.0,-0.0,0.1,0.88,-0.22,0.39,0.16,0.0,0.0,0.0
1752859080563,339.0,-49.0,22.0,-7.0,-3.0,6.0,0.0,-0.0,-0.0,0.88,-0.21,0.39,0.16,0.0,0.0,0.0
1752859080614,339.0,-49.0,23.0,-7.0,-3.0,6.0,-0.0,0.0,-0.2,0.88,-0.21,0.39,0.16,0.0,0.0,0.0
1752859080765,340.0,-49.0,24.0,-7.0,-3.0,6.0,0.0,-0.1,-0.1,0.88,-0.21,0.39,0.16,0.0,0.0,0.0
1752859080916,343.0,-49.0,29.0,-7.0,-3.0,5.0,-0.0,-0.1,-0.1,0.88,-0.23,0.39,0.15,0.0,0.0,0.0
1752859081066,347.0,-50.0,36.0,-8.0,-4.0,5.0,-0.1,-0.1,0.0,0.87,-0.25,0.4,0.13,0.0,0.0,0.0
1752859081215,352.0,-49.0,47.0,-8.0,-5.0,4.0,-0.3,0.1,-0.0,0.85,-0.31,0.43,0.06,0.0,0.0,0.0
1752859081248,353.0,-49.0,50.0,-8.0,-5.0,4.0,-0.1,-0.0,0.1,0.84,-0.32,0.43,0.05,0.0,0.0,0.0
1752859081281,355.0,-49.0,54.0,-7.0,-5.0,4.0,-0.0,-0.1,-0.5,0.83,-0.34,0.44,0.04,0.0,0.0,0.0
1752859081331,357.0,-49.0,58.0,-7.0,-6.0,3.0,0.0,0.0,-0.5,0.82,-0.35,0.45,0.03,0.0,0.0,0.0
1752859081363,358.0,-49.0,62.0,-8.0,-6.0,3.0,-0.2,0.1,-0.2,0.81,-0.36,0.46,0.01,0.0,0.0,0.0
1752859081512,5.0,-47.0,80.0,-7.0,-6.0,1.0,-0.4,0.4,-0.2,0.8,-0.38,0.47,0.0,0.0,0.0,0.0
1752859081564,7.0,-46.0,87.0,-7.0,-6.0,-0.0,0.2,0.5,-0.3,0.72,-0.45,0.53,-0.05,0.0,0.0,0.0
1752859082295,3.0,-43.0,121.0,-7.0,-6.0,-4.0,-0.1,0.2,-0.1,0.56,-0.54,0.63,-0.02,0.0,0.0,0.0
1752859082432,4.0,-43.0,119.0,-7.0,-6.0,-3.0,-0.3,0.1,-0.1,0.56,-0.54,0.63,-0.02,0.0,0.0,0.0
1752859082481,5.0,-45.0,112.0,-7.0,-6.0,-2.0,-0.3,0.0,0.0,0.6,-0.52,0.6,-0.03,0.0,0.0,0.0
1752859082531,5.0,-45.0,110.0,-7.0,-6.0,-2.0,-0.2,0.1,0.0,0.61,-0.51,0.6,-0.03,0.0,0.0,0.0
1752859082615,5.0,-46.0,106.0,-7.0,-6.0,-2.0,-0.2,0.1,-0.4,0.63,-0.51,0.59,-0.03,0.0,0.0,0.0
1752859082665,5.0,-46.0,104.0,-7.0,-7.0,-2.0,-0.2,0.0,-0.2,0.64,-0.5,0.58,-0.03,0.0,0.0,0.0
1752859082711,5.0,-46.0,103.0,-7.0,-7.0,-2.0,-0.1,0.1,-0.2,0.65,-0.49,0.58,-0.03,0.0,0.0,0.0
1752859082849,5.0,-46.0,103.0,-7.0,-6.0,-2.0,0.3,0.1,-0.3,0.65,-0.49,0.58,-0.03,0.0,0.0,0.0
1752859082999,5.0,-45.0,109.0,-7.0,-7.0,-2.0,-0.0,-0.0,-0.0,0.64,-0.5,0.58,-0.03,0.0,0.0,0.0
1752859083032,5.0,-45.0,111.0,-7.0,-6.0,-3.0,-0.1,0.1,0.1,0.61,-0.52,0.6,-0.03,0.0,0.0,0.0
1752859083179,5.0,-44.0,113.0,-7.0,-6.0,-3.0,-0.3,0.0,0.1,0.6,-0.52,0.61,-0.03,0.0,0.0,0.0
1752859083233,4.0,-44.0,118.0,-7.0,-6.0,-3.0,-0.2,-0.2,0.1,0.58,-0.53,0.62,-0.02,0.0,0.0,0.0
1752859083274,4.0,-44.0,118.0,-7.0,-6.0,-3.0,-0.0,0.0,-0.0,0.57,-0.53,0.63,-0.02,0.0,0.0,0.0
1752859083317,4.0,-44.0,118.0,-7.0,-6.0,-3.0,-0.5,-0.1,0.1,0.57,-0.53,0.63,-0.02,0.0,0.0,0.0
1752859083365,4.0,-44.0,118.0,-7.0,-6.0,-3.0,-0.3,-0.2,0.2,0.57,-0.53,0.63,-0.02,0.0,0.0,0.0
1752859083515,4.0,-44.0,116.0,-7.0,-6.0,-3.0,-0.3,0.1,-0.1,0.58,-0.53,0.62,-0.02,0.0,0.0,0.0
1752859083651,4.0,-45.0,114.0,-7.0,-6.0,-3.0,-0.0,0.2,-0.2,0.6,-0.52,0.61,-0.02,0.0,0.0,0.0
1752859083684,4.0,-45.0,113.0,-7.0,-6.0,-3.0,-0.0,0.2,-0.2,0.6,-0.52,0.61,-0.02,0.0,0.0,0.0
1752859083735,4.0,-45.0,113.0,-7.0,-6.0,-3.0,-0.3,-0.1,0.1,0.6,-0.52,0.61,-0.02,0.0,0.0,0.0
1752859083784,4.0,-45.0,114.0,-7.0,-6.0,-3.0,0.0,0.2,-0.1,0.6,-0.52,0.61,-0.02,0.0,0.0,0.0
1752859083824,4.0,-45.0,114.0,-7.0,-6.0,-3.0,-0.2,0.0,0.0,0.6,-0.52,0.61,-0.02,0.0,0.0,0.0
1752859083965,4.0,-45.0,115.0,-7.0,-6.0,-3.0,-0.1,0.0,0.0,0.59,-0.52,0.61,-0.02,0.0,0.0,0.0
1752859084215,4.0,-45.0,115.0,-7.0,-6.0,-3.0,0.0,0.2,-0.1,0.59,-0.53,0.61,-0.02,0.0,0.0,0.0
1752859084370,3.0,-45.0,116.0,-7.0,-6.0,-3.0,-0.2,0.0,0.1,0.59,-0.53,0.61,-0.02,0.0,0.0,0.0
1752859084622,3.0,-45.0,116.0,-7.0,-6.0,-3.0,-0.1,0.0,0.1,0.59,-0.53,0.62,-0.02,0.0,0.0,0.0
1752859084675,3.0,-45.0,116.0,-7.0,-6.0,-3.0,0.0,0.2,0.0,0.59,-0.53,0.62,-0.01,0.0,0.0,0.0
1752859084709,3.0,-45.0,116.0,-7.0,-6.0,-3.0,-0.1,0.1,0.0,0.59,-0.53,0.62,-0.01,0.0,0.0,0.0
1752859084766,3.0,-45.0,116.0,-7.0,-6.0,-3.0,-0.2,0.0,0.1,0.59,-0.53,0.62,-0.01,0.0,0.0,0.0
1752859084905,2.0,-45.0,117.0,-7.0,-6.0,-3.0,-0.1,0.1,0.1,0.59,-0.53,0.62,-0.01,0.0,0.0,0.0
1752859084937,2.0,-45.0,118.0,-7.0,-6.0,-3.0,-0.0,0.0,0.1,0.58,-0.53,0.62,-0.01,0.0,0.0,0.0
1752859084980,2.0,-45.0,118.0,-7.0,-6.0,-3.0,-0.1,0.1,0.1,0.58,-0.53,0.62,-0.01,0.0,0.0,0.0
1752859085122,2.0,-45.0,118.0,-7.0,-6.0,-3.0,-0.1,-0.0,0.1,0.58,-0.53,0.62,-0.01,0.0,0.0,0.0
1752859085260,2.0,-45.0,118.0,-7.0,-6.0,-3.0,-0.1,0.1,-0.1,0.58,-0.53,0.62,-0.01,0.0,0.0,0.0
1752859085413,2.0,-45.0,118.0,-7.0,-6.0,-3.0,0.0,0.1,0.0,0.58,-0.53,0.62,-0.01,0.0,0.0,0.0
1752859085554,1.0,-45.0,119.0,-7.0,-6.0,-3.0,-0.2,0.1,0.0,0.58,-0.53,0.62,-0.01,0.0,0.0,0.0
1752859085931,1.0,-46.0,119.0,-7.0,-6.0,-3.0,-0.2,-0.0,0.2,0.58,-0.53,0.62,-0.0,0.0,0.0,0.0
1752859085974,1.0,-46.0,119.0,-7.0,-6.0,-3.0,0.0,0.1,-0.0,0.58,-0.53,0.62,-0.0,0.0,0.0,0.0
1752859086028,0.0,-46.0,119.0,-7.0,-6.0,-3.0,-0.1,0.0,0.1,0.58,-0.53,0.62,-0.0,0.0,0.0,0.0
1752859086172,0.0,-46.0,119.0,-7.0,-6.0,-3.0,-0.1,0.0,0.0,0.58,-0.53,0.62,-0.0,0.0,0.0,0.0
1752859086326,0.0,-46.0,119.0,-7.0,-6.0,-3.0,-0.0,0.1,-0.1,0.57,-0.53,0.62,-0.0,0.0,0.0,0.0
1752859086377,0.0,-46.0,119.0,-7.0,-6.0,-3.0,-0.0,0.0,-0.0,0.57,-0.53,0.62,-0.0,0.0,0.0,0.0
1752859086513,360.0,-46.0,119.0,-7.0,-6.0,-3.0,0.0,0.0,0.0,0.57,-0.53,0.62,0.0,0.0,0.0,0.0
