timestamp,heading,roll,pitch,acc_x,acc_y,acc_z,lin_acc_x,lin_acc_y,lin_acc_z,quat_w,quat_x,quat_y,quat_z,mag_x,mag_y,mag_z
1752780248926,293.0,9.0,-158.0,2.0,5.0,-9.0,0.9,0.9,0.3,0.17,0.54,-0.82,-0.11,0.0,0.0,0.0
1752780248926,294.0,9.0,-157.0,1.0,5.0,-9.0,-1.7,0.5,0.4,0.17,0.54,-0.82,-0.12,0.0,0.0,0.0
1752780248926,295.0,11.0,-159.0,2.0,3.0,-10.0,0.5,0.5,0.5,0.18,0.53,-0.82,-0.1,0.0,0.0,0.0
1752780248928,296.0,13.0,-160.0,2.0,3.0,-10.0,0.0,-0.8,-0.4,0.19,0.52,-0.83,-0.08,0.0,0.0,0.0
1752780248928,297.0,13.0,-158.0,2.0,3.0,-10.0,-0.0,-0.8,-0.8,0.19,0.52,-0.83,-0.07,0.0,0.0,0.0
1752780248928,297.0,13.0,-157.0,3.0,4.0,-9.0,0.6,0.2,-0.0,0.2,0.51,-0.83,-0.1,0.0,0.0,0.0
1752780248928,297.0,14.0,-157.0,1.0,4.0,-9.0,-1.2,0.6,-0.6,0.21,0.51,-0.83,-0.1,0.0,0.0,0.0
1752780248928,297.0,16.0,-156.0,4.0,4.0,-10.0,2.2,-2.3,-0.9,0.22,0.51,-0.83,-0.1,0.0,0.0,0.0
1752780248928,298.0,17.0,-158.0,6.0,0.0,-10.0,2.0,-3.6,-2.0,0.23,0.5,-0.83,-0.08,0.0,0.0,0.0
1752780248999,301.0,18.0,-158.0,3.0,2.0,-10.0,1.1,0.2,-0.3,0.23,0.47,-0.85,-0.08,0.0,0.0,0.0
1752780249039,328.0,8.0,-158.0,1.0,6.0,-8.0,-0.5,2.1,1.3,0.13,0.28,-0.94,-0.15,0.0,0.0,0.0
1752780249090,331.0,6.0,-158.0,-2.0,5.0,-7.0,-2.5,1.3,1.6,0.1,0.24,-0.95,-0.17,0.0,0.0,0.0
1752780249123,332.0,4.0,-158.0,-0.0,4.0,-8.0,-0.8,0.3,1.5,0.08,0.24,-0.95,-0.17,0.0,0.0,0.0
1752780249174,330.0,4.0,-158.0,0.0,3.0,-8.0,-0.4,-1.1,0.7,0.08,0.25,-0.95,-0.17,0.0,0.0,0.0
1752780249199,328.0,7.0,-158.0,1.0,4.0,-10.0,0.2,0.2,-0.7,0.1,0.27,-0.94,-0.17,0.0,0.0,0.0
1752780249241,327.0,9.0,-158.0,2.0,3.0,-10.0,0.5,-0.8,-1.0,0.12,0.28,-0.94,-0.16,0.0,0.0,0.0
1752780249289,326.0,10.0,-159.0,2.0,3.0,-9.0,0.1,-0.9,-0.3,0.13,0.29,-0.94,-0.15,0.0,0.0,0.0
1752780249326,326.0,10.0,-159.0,2.0,3.0,-9.0,-0.3,-0.0,-0.2,0.14,0.28,-0.94,-0.15,0.0,0.0,0.0
1752780249360,327.0,10.0,-159.0,1.0,4.0,-9.0,-0.5,-0.2,0.9,0.14,0.28,-0.94,-0.14,0.0,0.0,0.0
1752780249408,326.0,11.0,-159.0,2.0,3.0,-9.0,-0.0,-0.4,-0.1,0.15,0.29,-0.94,-0.14,0.0,0.0,0.0
1752780249445,326.0,14.0,-158.0,3.0,4.0,-10.0,0.4,0.4,-1.2,0.16,0.29,-0.93,-0.14,0.0,0.0,0.0
1752780249481,326.0,14.0,-158.0,2.0,4.0,-9.0,-0.2,0.0,0.0,0.18,0.28,-0.93,-0.14,0.0,0.0,0.0
1752780249529,326.0,14.0,-158.0,2.0,3.0,-8.0,0.0,-0.2,0.1,0.17,0.28,-0.93,-0.14,0.0,0.0,0.0
1752780249568,326.0,15.0,-158.0,3.0,3.0,-10.0,0.2,-0.0,-1.0,0.18,0.29,-0.93,-0.14,0.0,0.0,0.0
1752780249603,326.0,16.0,-158.0,2.0,3.0,-8.0,-0.3,-0.5,0.5,0.19,0.29,-0.93,-0.14,0.0,0.0,0.0
1752780249642,325.0,16.0,-158.0,3.0,4.0,-9.0,0.1,0.1,-0.6,0.19,0.29,-0.93,-0.14,0.0,0.0,0.0
1752780249690,325.0,17.0,-158.0,3.0,3.0,-9.0,-0.2,-0.1,0.0,0.2,0.29,-0.93,-0.13,0.0,0.0,0.0
1752780249733,325.0,17.0,-158.0,3.0,2.0,-8.0,-0.1,-1.0,0.3,0.2,0.29,-0.93,-0.13,0.0,0.0,0.0
1752780249768,325.0,18.0,-158.0,3.0,3.0,-9.0,0.2,-0.1,-0.7,0.2,0.29,-0.92,-0.13,0.0,0.0,0.0
1752780249897,325.0,19.0,-158.0,3.0,3.0,-9.0,-0.3,0.1,0.1,0.21,0.29,-0.92,-0.13,0.0,0.0,0.0
1752780249946,325.0,19.0,-158.0,3.0,3.0,-9.0,0.1,-0.3,-0.4,0.22,0.29,-0.92,-0.13,0.0,0.0,0.0
1752780250202,325.0,20.0,-158.0,3.0,3.0,-9.0,-0.2,-0.2,-0.1,0.22,0.29,-0.92,-0.12,0.0,0.0,0.0
1752780250239,326.0,20.0,-158.0,3.0,4.0,-8.0,-0.2,0.0,0.2,0.23,0.29,-0.92,-0.12,0.0,0.0,0.0
1752780250273,326.0,21.0,-158.0,3.0,4.0,-9.0,0.0,0.4,-0.6,0.23,0.28,-0.92,-0.12,0.0,0.0,0.0
1752780250314,326.0,21.0,-157.0,3.0,3.0,-9.0,-0.0,-0.4,-0.1,0.23,0.28,-0.92,-0.12,0.0,0.0,0.0
1752780250356,325.0,20.0,-157.0,3.0,3.0,-8.0,-0.2,-0.6,0.3,0.23,0.29,-0.92,-0.12,0.0,0.0,0.0
1752780250504,325.0,21.0,-157.0,4.0,3.0,-9.0,0.1,-0.5,-0.3,0.23,0.29,-0.92,-0.12,0.0,0.0,0.0
1752780250538,325.0,22.0,-157.0,4.0,4.0,-8.0,-0.2,0.1,-0.1,0.24,0.29,-0.92,-0.12,0.0,0.0,0.0
1752780250573,325.0,23.0,-157.0,3.0,4.0,-8.0,-0.3,-0.2,0.2,0.25,0.29,-0.92,-0.12,0.0,0.0,0.0
1752780250614,325.0,24.0,-157.0,4.0,3.0,-9.0,0.4,-0.1,-1.0,0.26,0.29,-0.92,-0.12,0.0,0.0,0.0
1752780250657,325.0,25.0,-157.0,4.0,3.0,-9.0,-0.2,-0.0,-0.1,0.26,0.29,-0.91,-0.11,0.0,0.0,0.0
1752780250907,325.0,26.0,-157.0,4.0,3.0,-8.0,-0.3,-0.2,0.0,0.27,0.28,-0.91,-0.11,0.0,0.0,0.0
1752780251041,326.0,26.0,-156.0,4.0,3.0,-8.0,0.0,-0.2,-0.3,0.27,0.28,-0.91,-0.11,0.0,0.0,0.0
1752780251193,326.0,26.0,-157.0,4.0,3.0,-9.0,0.0,-0.4,-0.5,0.28,0.28,-0.91,-0.11,0.0,0.0,0.0
1752780251343,326.0,26.0,-157.0,4.0,3.0,-8.0,-0.2,-0.1,0.1,0.28,0.28,-0.91,-0.11,0.0,0.0,0.0
1752780251374,326.0,26.0,-157.0,4.0,3.0,-8.0,-0.1,-0.1,0.0,0.28,0.28,-0.91,-0.11,0.0,0.0,0.0
1752780251426,325.0,27.0,-156.0,5.0,3.0,-9.0,0.1,-0.3,-0.4,0.28,0.28,-0.91,-0.11,0.0,0.0,0.0
1752780251558,325.0,27.0,-156.0,4.0,3.0,-8.0,-0.2,-0.2,-0.1,0.28,0.28,-0.91,-0.11,0.0,0.0,0.0
1752780251596,325.0,27.0,-156.0,4.0,3.0,-8.0,-0.1,-0.1,-0.1,0.29,0.28,-0.91,-0.11,0.0,0.0,0.0
1752780251645,325.0,27.0,-156.0,4.0,3.0,-8.0,-0.1,-0.1,-0.1,0.29,0.28,-0.91,-0.11,0.0,0.0,0.0
1752780251799,326.0,27.0,-157.0,5.0,3.0,-8.0,0.0,-0.2,-0.3,0.29,0.28,-0.91,-0.11,0.0,0.0,0.0
1752780252034,326.0,27.0,-157.0,5.0,3.0,-8.0,0.0,-0.2,0.0,0.28,0.28,-0.91,-0.11,0.0,0.0,0.0
1752780252285,327.0,28.0,-158.0,5.0,3.0,-8.0,-0.1,-0.5,0.0,0.28,0.28,-0.91,-0.11,0.0,0.0,0.0
1752780252432,327.0,27.0,-158.0,5.0,3.0,-8.0,0.1,-0.8,-0.1,0.28,0.27,-0.92,-0.1,0.0,0.0,0.0
1752780252468,327.0,27.0,-158.0,5.0,3.0,-8.0,0.0,-0.3,-0.3,0.28,0.28,-0.91,-0.1,0.0,0.0,0.0
1752780252518,327.0,27.0,-158.0,4.0,4.0,-8.0,0.0,0.5,-0.2,0.28,0.27,-0.92,-0.1,0.0,0.0,0.0
1752780252652,327.0,27.0,-158.0,5.0,3.0,-9.0,0.1,0.3,-0.3,0.28,0.27,-0.92,-0.1,0.0,0.0,0.0
1752780252702,327.0,26.0,-160.0,4.0,3.0,-8.0,-0.3,-0.5,0.4,0.27,0.27,-0.92,-0.09,0.0,0.0,0.0
1752780252735,327.0,26.0,-160.0,4.0,3.0,-8.0,-0.1,-0.3,0.1,0.26,0.27,-0.92,-0.09,0.0,0.0,0.0
1752780252866,327.0,26.0,-160.0,5.0,2.0,-8.0,0.0,-0.8,-0.2,0.27,0.27,-0.92,-0.09,0.0,0.0,0.0
1752780252910,327.0,26.0,-159.0,4.0,2.0,-8.0,-0.1,-0.4,-0.0,0.27,0.27,-0.92,-0.09,0.0,0.0,0.0
1752780252950,329.0,27.0,-160.0,4.0,5.0,-9.0,-0.3,1.5,-0.8,0.27,0.26,-0.92,-0.09,0.0,0.0,0.0
1752780252992,330.0,28.0,-160.0,4.0,3.0,-8.0,-0.4,0.4,0.2,0.28,0.25,-0.92,-0.09,0.0,0.0,0.0
1752780253034,329.0,27.0,-159.0,5.0,3.0,-8.0,0.3,-0.5,-0.3,0.27,0.25,-0.92,-0.1,0.0,0.0,0.0
1752780253069,329.0,27.0,-159.0,5.0,3.0,-8.0,0.2,-0.2,-0.1,0.27,0.26,-0.92,-0.1,0.0,0.0,0.0
1752780253110,329.0,27.0,-159.0,4.0,3.0,-8.0,-0.0,0.1,0.2,0.27,0.26,-0.92,-0.1,0.0,0.0,0.0
1752780253150,329.0,27.0,-159.0,5.0,3.0,-9.0,0.2,0.3,-0.7,0.27,0.25,-0.92,-0.1,0.0,0.0,0.0
1752780253193,329.0,27.0,-159.0,4.0,3.0,-8.0,-0.2,0.0,0.3,0.27,0.25,-0.92,-0.1,0.0,0.0,0.0
1752780253236,329.0,27.0,-159.0,4.0,3.0,-8.0,0.1,-0.3,-0.3,0.27,0.26,-0.92,-0.1,0.0,0.0,0.0
1752780253272,329.0,27.0,-159.0,4.0,3.0,-8.0,-0.1,0.0,-0.1,0.27,0.26,-0.92,-0.1,0.0,0.0,0.0
1752780253411,329.0,27.0,-159.0,4.0,3.0,-8.0,-0.1,0.2,0.2,0.27,0.26,-0.92,-0.1,0.0,0.0,0.0
1752780253451,329.0,27.0,-159.0,5.0,3.0,-9.0,0.2,-0.2,-0.4,0.27,0.26,-0.92,-0.1,0.0,0.0,0.0
1752780253491,329.0,27.0,-159.0,5.0,3.0,-8.0,0.0,-0.0,-0.2,0.27,0.26,-0.92,-0.1,0.0,0.0,0.0
1752780253641,329.0,27.0,-159.0,5.0,3.0,-9.0,0.0,0.1,-0.3,0.27,0.26,-0.92,-0.09,0.0,0.0,0.0
1752780253688,329.0,27.0,-159.0,4.0,3.0,-8.0,-0.1,0.0,0.0,0.27,0.26,-0.92,-0.09,0.0,0.0,0.0
1752780253722,329.0,27.0,-159.0,5.0,3.0,-9.0,0.1,0.1,-0.4,0.27,0.26,-0.92,-0.09,0.0,0.0,0.0
1752780253864,329.0,27.0,-159.0,5.0,3.0,-10.0,0.9,0.0,-1.9,0.27,0.26,-0.92,-0.09,0.0,0.0,0.0
1752780253906,330.0,25.0,-164.0,7.0,2.0,-11.0,2.4,-0.1,-1.9,0.25,0.25,-0.93,-0.07,0.0,0.0,0.0
1752780254049,330.0,24.0,-166.0,3.0,1.0,-9.0,1.2,0.5,0.8,0.24,0.25,-0.94,-0.06,0.0,0.0,0.0
1752780254082,346.0,9.0,179.0,2.0,0.0,-8.0,0.3,1.0,1.1,0.07,0.12,-0.99,0.02,0.0,0.0,0.0
1752780254122,350.0,5.0,176.0,2.0,-1.0,-10.0,1.3,-1.0,-0.0,0.04,0.09,-0.99,0.04,0.0,0.0,0.0
1752780254170,352.0,0.0,175.0,0.0,-2.0,-9.0,0.3,-1.1,1.2,-0.0,0.07,-1.0,0.05,0.0,0.0,0.0
1752780254203,358.0,-7.0,174.0,-1.0,-1.0,-8.0,0.3,-0.1,1.8,-0.05,0.03,-1.0,0.05,0.0,0.0,0.0
1752780254248,1.0,-9.0,174.0,-2.0,-1.0,-9.0,-0.3,-0.2,0.8,-0.08,-0.01,-1.0,0.05,0.0,0.0,0.0
1752780254286,5.0,-12.0,175.0,-2.0,-1.0,-8.0,3.9,3.8,0.4,-0.11,-0.04,-0.99,0.05,0.0,0.0,0.0
1752780254332,10.0,-14.0,175.0,-3.0,1.0,-8.0,0.0,0.1,-0.5,-0.12,-0.09,-0.99,0.05,0.0,0.0,0.0
1752780254366,13.0,-16.0,175.0,-3.0,-4.0,-7.0,-0.0,-3.5,1.9,-0.13,-0.11,-0.98,0.06,0.0,0.0,0.0
1752780254403,17.0,-17.0,178.0,-0.0,2.0,-10.0,2.2,3.2,-0.9,-0.15,-0.13,-0.98,0.05,0.0,0.0,0.0
1752780254450,20.0,-15.0,168.0,-4.0,-3.0,-5.0,-0.8,-0.4,4.4,-0.11,-0.17,-0.97,0.12,0.0,0.0,0.0
1752780254486,18.0,-22.0,165.0,-3.0,-2.0,-8.0,0.9,0.4,0.4,-0.17,-0.15,-0.96,0.15,0.0,0.0,0.0
1752780254520,19.0,-29.0,161.0,-5.0,-3.0,-6.0,-0.8,0.0,1.4,-0.23,-0.16,-0.94,0.19,0.0,0.0,0.0
1752780254566,25.0,-37.0,159.0,-9.0,-5.0,-8.0,-2.9,-1.9,-1.0,-0.28,-0.2,-0.91,0.22,0.0,0.0,0.0
1752780254604,69.0,-43.0,163.0,-6.0,-2.0,-7.0,0.3,-0.2,-0.5,-0.32,-0.25,-0.89,0.22,0.0,0.0,0.0
1752780254650,67.0,-44.0,164.0,-6.0,-2.0,-7.0,0.5,0.2,0.1,-0.33,-0.28,-0.88,0.22,0.0,0.0,0.0
1752780254684,67.0,-45.0,166.0,-6.0,-2.0,-5.0,0.0,-0.3,0.2,-0.33,-0.31,-0.86,0.22,0.0,0.0,0.0
1752780254721,68.0,-47.0,168.0,-7.0,-1.0,-6.0,1.1,1.5,-0.2,-0.34,-0.35,-0.84,0.23,0.0,0.0,0.0
1752780254770,68.0,-51.0,171.0,-7.0,-0.0,-6.0,0.8,0.6,0.3,-0.36,-0.39,-0.82,0.24,0.0,0.0,0.0
1752780254820,66.0,-52.0,175.0,-7.0,-1.0,-6.0,0.4,-1.0,-0.2,-0.36,-0.43,-0.79,0.24,0.0,0.0,0.0
1752780254954,62.0,-51.0,179.0,-7.0,-0.0,-6.0,0.3,-1.0,-0.1,-0.37,-0.45,-0.78,0.22,0.0,0.0,0.0
1752780254987,51.0,-49.0,-173.0,-7.0,0.0,-7.0,0.2,-0.5,-0.0,-0.38,-0.48,-0.77,0.18,0.0,0.0,0.0
1752780255021,47.0,-50.0,-169.0,-7.0,1.0,-6.0,1.2,-0.4,-0.5,-0.39,-0.49,-0.76,0.17,0.0,0.0,0.0
1752780255070,41.0,-49.0,-162.0,-7.0,4.0,-6.0,0.1,1.4,0.8,-0.41,-0.52,-0.74,0.15,0.0,0.0,0.0
1752780255117,35.0,-48.0,-155.0,-8.0,3.0,-5.0,-0.0,-1.0,0.0,-0.42,-0.55,-0.71,0.14,0.0,0.0,0.0
1752780255154,29.0,-46.0,-150.0,-7.0,3.0,-6.0,-0.5,-1.2,-0.2,-0.43,-0.57,-0.69,0.12,0.0,0.0,0.0
1752780255396,24.0,-44.0,-146.0,2.0,13.0,-3.0,8.4,8.5,3.8,-0.44,-0.6,-0.66,0.09,0.0,0.0,0.0
1752780255436,6.0,-37.0,-149.0,2.0,13.0,-3.0,8.0,9.1,5.1,-0.4,-0.56,-0.73,0.02,0.0,0.0,0.0
1752780255473,60.0,-36.0,-164.0,9.0,18.0,-10.0,22.2,7.4,-6.0,-0.33,-0.47,-0.81,0.05,0.0,0.0,0.0
1752780255619,39.0,-34.0,178.0,0.0,-7.0,-9.0,0.5,-1.3,2.3,-0.27,-0.32,-0.9,0.11,0.0,0.0,0.0
1752780255672,323.0,-17.0,158.0,-1.0,-6.0,-8.0,2.0,-2.3,0.6,-0.19,0.29,-0.93,0.11,0.0,0.0,0.0
1752780255807,317.0,-19.0,152.0,-3.0,-7.0,-5.0,0.1,-1.4,1.5,-0.24,0.35,-0.89,0.16,0.0,0.0,0.0
1752780255854,63.0,-21.0,138.0,-4.0,-9.0,-4.0,1.7,-1.6,0.8,-0.33,0.45,-0.8,0.21,0.0,0.0,0.0
1752780255892,300.0,-19.0,139.0,-4.0,-8.0,-6.0,1.3,-3.7,0.2,-0.32,0.47,-0.8,0.2,0.0,0.0,0.0
1752780255927,297.0,-18.0,142.0,-4.0,-9.0,-8.0,1.7,-5.5,-1.4,-0.3,0.49,-0.8,0.18,0.0,0.0,0.0
1752780256063,328.0,-21.0,166.0,10.0,-8.0,-9.0,12.2,-4.2,0.9,-0.22,0.31,-0.92,0.07,0.0,0.0,0.0
1752780256105,349.0,-19.0,-175.0,6.0,7.0,-11.0,11.7,4.7,-4.0,-0.17,0.14,-0.97,-0.02,0.0,0.0,0.0
1752780256147,9.0,-17.0,-165.0,5.0,13.0,-8.0,7.6,10.0,1.1,-0.16,-0.08,-0.98,-0.12,0.0,0.0,0.0
1752780256187,25.0,-16.0,-158.0,3.0,8.0,-7.0,6.1,3.1,0.4,-0.18,-0.21,-0.95,-0.15,0.0,0.0,0.0
1752780256225,35.0,-16.0,-156.0,1.0,8.0,-7.0,3.9,2.6,3.0,-0.19,-0.29,-0.93,-0.15,0.0,0.0,0.0
1752780256367,42.0,-16.0,-153.0,-3.0,5.0,-7.0,0.5,-0.5,0.6,-0.22,-0.34,-0.9,-0.16,0.0,0.0,0.0
1752780256517,57.0,-22.0,-145.0,3.0,21.0,8.0,9.0,15.5,13.7,-0.3,-0.45,-0.83,-0.15,0.0,0.0,0.0
1752780256551,344.0,-39.0,-141.0,37.0,39.0,-14.0,0.0,0.0,0.0,-0.44,-0.44,-0.78,-0.06,0.0,0.0,0.0
1752780256601,357.0,-35.0,178.0,39.0,-22.0,-39.0,42.9,-27.1,-30.5,-0.34,-0.11,-0.93,-0.02,0.0,0.0,0.0
1752780256651,303.0,-20.0,155.0,4.0,-39.0,0.0,8.2,-32.7,19.9,-0.26,0.46,-0.85,0.1,0.0,0.0,0.0
1752780256685,17.0,-32.0,139.0,-2.0,-19.0,-3.0,2.5,-11.8,-1.4,-0.42,0.56,-0.71,0.06,0.0,0.0,0.0
1752780256918,277.0,-21.0,140.0,-3.0,-8.0,-7.0,0.3,0.0,-0.7,-0.38,0.62,-0.68,0.06,0.0,0.0,0.0
1752780257065,43.0,-22.0,139.0,-6.0,-22.0,-5.0,-1.9,-16.1,2.0,-0.36,0.57,-0.73,0.14,0.0,0.0,0.0
1752780257102,292.0,-25.0,142.0,-2.0,-15.0,-5.0,2.7,-10.6,2.0,-0.36,0.52,-0.77,0.12,0.0,0.0,0.0
1752780257142,310.0,-30.0,154.0,5.0,-15.0,-6.0,14.0,-8.0,2.7,-0.33,0.4,-0.85,0.07,0.0,0.0,0.0
1752780257182,334.0,-31.0,173.0,9.0,6.0,-10.0,12.5,3.6,-2.0,-0.28,0.22,-0.94,-0.01,0.0,0.0,0.0
1752780257218,357.0,-31.0,-169.0,5.0,4.0,-13.0,10.1,4.1,-2.0,-0.26,0.02,-0.96,-0.09,0.0,0.0,0.0
1752780257265,24.0,-22.0,-156.0,6.0,16.0,-12.0,9.4,12.0,-3.5,-0.24,-0.16,-0.95,-0.14,0.0,0.0,0.0
1752780257315,34.0,-22.0,-149.0,0.0,8.0,-7.0,3.3,0.8,1.7,-0.27,-0.28,-0.9,-0.18,0.0,0.0,0.0
1752780257351,42.0,-26.0,-145.0,-1.0,5.0,-5.0,3.4,1.8,0.5,-0.31,-0.33,-0.87,-0.18,0.0,0.0,0.0
1752780257494,323.0,-35.0,-129.0,-3.0,7.0,-5.0,4.4,0.1,-0.6,-0.47,-0.43,-0.76,-0.16,0.0,0.0,0.0
1752780257534,333.0,-40.0,-122.0,-1.0,9.0,-2.0,6.3,2.9,2.1,-0.53,-0.45,-0.71,-0.13,0.0,0.0,0.0
1752780257571,341.0,-44.0,-110.0,3.0,16.0,12.0,9.0,12.6,19.7,-0.61,-0.44,-0.65,-0.1,0.0,0.0,0.0
1752780257621,351.0,-55.0,-100.0,16.0,40.0,20.0,42.8,25.0,8.7,-0.67,-0.4,-0.62,-0.06,0.0,0.0,0.0
1752780257669,14.0,-55.0,174.0,39.0,-10.0,-39.0,45.6,-7.6,-32.2,-0.54,-0.14,-0.83,0.03,0.0,0.0,0.0
1752780257706,328.0,-16.0,163.0,1.0,-39.0,-9.0,3.6,-35.7,-0.2,-0.17,0.27,-0.94,0.1,0.0,0.0,0.0
1752780257748,305.0,-20.0,162.0,-4.0,1.0,-8.0,4.3,-1.2,-14.5,-0.23,0.45,-0.86,0.05,0.0,0.0,0.0
1752780257788,306.0,-16.0,164.0,-1.0,-3.0,-11.0,1.2,0.5,-1.7,-0.18,0.45,-0.87,0.06,0.0,0.0,0.0
1752780257826,306.0,-15.0,163.0,-4.0,-5.0,-10.0,-1.4,-2.0,-0.6,-0.18,0.44,-0.88,0.07,0.0,0.0,0.0
1752780257865,305.0,-14.0,159.0,-3.0,-5.0,-8.0,-0.8,-1.7,1.3,-0.19,0.45,-0.87,0.09,0.0,0.0,0.0
1752780257904,307.0,-14.0,156.0,-2.0,-5.0,-9.0,0.5,-0.8,-0.9,-0.2,0.43,-0.87,0.12,0.0,0.0,0.0
1752780257949,310.0,-13.0,152.0,-4.0,-5.0,-7.0,-0.4,-1.1,1.7,-0.21,0.41,-0.87,0.16,0.0,0.0,0.0
1752780257993,311.0,-13.0,150.0,-2.0,-6.0,-10.0,0.0,-0.2,-1.2,-0.21,0.4,-0.87,0.18,0.0,0.0,0.0
1752780258030,313.0,-14.0,150.0,-2.0,-5.0,-9.0,0.1,0.5,-0.4,-0.22,0.38,-0.88,0.18,0.0,0.0,0.0
1752780258070,314.0,-14.0,149.0,-2.0,-6.0,-10.0,0.5,-0.2,-0.9,-0.22,0.37,-0.88,0.19,0.0,0.0,0.0
1752780258214,330.0,-32.0,154.0,-5.0,-10.0,-8.0,0.8,-6.8,-0.5,-0.31,0.26,-0.91,0.13,0.0,0.0,0.0
1752780258253,340.0,-38.0,155.0,-4.0,-8.0,-5.0,2.6,-5.6,1.6,-0.36,0.16,-0.91,0.12,0.0,0.0,0.0
1752780258293,30.0,-46.0,163.0,-8.0,-5.0,-3.0,8.9,-8.9,3.5,-0.4,0.01,-0.91,0.11,0.0,0.0,0.0
1752780258331,26.0,-46.0,175.0,3.0,-9.0,-5.0,10.1,0.4,3.2,-0.38,-0.13,-0.91,0.09,0.0,0.0,0.0
1752780258374,356.0,-44.0,-159.0,1.0,12.0,-8.0,7.1,7.8,-1.0,-0.4,-0.28,-0.87,-0.02,0.0,0.0,0.0
1752780258417,325.0,-33.0,-138.0,-3.0,16.0,-3.0,2.0,10.3,3.5,-0.41,-0.41,-0.81,-0.11,0.0,0.0,0.0
1752780258456,318.0,-30.0,-135.0,6.0,5.0,-1.0,10.5,-1.0,5.9,-0.41,-0.45,-0.78,-0.16,0.0,0.0,0.0
1752780258499,310.0,-23.0,-139.0,-2.0,10.0,-3.0,2.2,2.5,3.8,-0.35,-0.48,-0.78,-0.17,0.0,0.0,0.0
1752780258536,60.0,-15.0,-139.0,-3.0,7.0,-4.0,3.4,1.6,3.1,-0.29,-0.46,-0.81,-0.22,0.0,0.0,0.0
1752780258577,50.0,-4.0,-141.0,9.0,4.0,-15.0,9.1,-1.7,-7.6,-0.19,-0.42,-0.85,-0.27,0.0,0.0,0.0
1752780258728,48.0,-1.0,-140.0,15.0,31.0,-5.0,21.4,22.2,-1.3,-0.14,-0.37,-0.86,-0.31,0.0,0.0,0.0
1752780258769,8.0,-15.0,-150.0,34.0,-2.0,-19.0,36.4,-5.9,-10.6,-0.17,-0.14,-0.93,-0.28,0.0,0.0,0.0
1752780258817,341.0,-20.0,-174.0,15.0,-11.0,-6.0,19.6,-9.8,2.4,-0.17,0.16,-0.97,-0.08,0.0,0.0,0.0
1752780258851,324.0,-33.0,152.0,7.0,-7.0,2.0,11.7,-2.3,8.0,-0.34,0.29,-0.89,0.11,0.0,0.0,0.0
1752780258885,57.0,-32.0,110.0,12.0,-26.0,11.0,15.0,-22.1,15.1,-0.53,0.37,-0.71,0.28,0.0,0.0,0.0
1752780258928,61.0,-23.0,65.0,2.0,-12.0,25.0,4.3,5.6,18.3,-0.72,0.32,-0.45,0.42,0.0,0.0,0.0
1752780258969,39.0,-33.0,46.0,-3.0,-1.0,14.0,2.7,5.0,8.0,-0.83,0.23,-0.4,0.31,0.0,0.0,0.0
1752780259017,42.0,-37.0,47.0,-3.0,-2.0,7.0,3.0,3.1,2.2,-0.82,0.19,-0.44,0.31,0.0,0.0,0.0
1752780259051,44.0,-42.0,47.0,-4.0,-7.0,9.0,3.4,-1.2,4.1,-0.81,0.15,-0.47,0.32,0.0,0.0,0.0
1752780259087,42.0,-48.0,52.0,-5.0,1.0,4.0,2.0,6.7,-0.3,-0.78,0.13,-0.53,0.3,0.0,0.0,0.0
1752780259137,41.0,-53.0,69.0,-5.0,-5.0,-1.0,2.9,-0.1,-2.3,-0.73,0.16,-0.6,0.27,0.0,0.0,0.0
1752780259168,47.0,-53.0,85.0,-6.0,-6.0,-1.0,1.3,-0.1,-0.7,-0.68,0.16,-0.66,0.29,0.0,0.0,0.0
1752780259212,49.0,-53.0,95.0,-5.0,-8.0,0.0,2.4,-2.7,1.6,-0.63,0.15,-0.71,0.29,0.0,0.0,0.0
1752780259247,53.0,-53.0,110.0,-5.0,-5.0,0.0,2.5,1.8,2.4,-0.57,0.12,-0.77,0.28,0.0,0.0,0.0
1752780259293,50.0,-52.0,131.0,-4.0,-0.0,-3.0,1.1,5.6,0.3,-0.5,0.08,-0.83,0.23,0.0,0.0,0.0
1752780259324,49.0,-44.0,148.0,-3.0,-7.0,-3.0,3.2,-3.8,3.5,-0.4,0.07,-0.89,0.18,0.0,0.0,0.0
1752780259374,350.0,-30.0,164.0,1.0,-5.0,-10.0,5.1,-3.3,-1.4,-0.3,0.08,-0.94,0.13,0.0,0.0,0.0
1752780259425,352.0,-22.0,-177.0,1.0,0.0,-10.0,4.7,-1.8,-1.4,-0.2,0.08,-0.98,0.0,0.0,0.0,0.0
1752780259458,358.0,-18.0,-161.0,2.0,5.0,-7.0,4.5,0.8,1.3,-0.15,0.02,-0.97,-0.16,0.0,0.0,0.0
1752780259499,13.0,-8.0,-151.0,7.0,9.0,-9.0,9.1,5.4,-0.6,-0.1,-0.11,-0.96,-0.24,0.0,0.0,0.0
1752780259535,35.0,8.0,-145.0,10.0,20.0,-7.0,6.7,18.3,1.2,-0.03,-0.29,-0.91,-0.31,0.0,0.0,0.0
1752780259575,51.0,17.0,-143.0,13.0,27.0,-7.0,13.4,20.7,-0.8,0.01,-0.4,-0.85,-0.34,0.0,0.0,0.0
1752780259627,36.0,11.0,-145.0,21.0,12.0,-10.0,21.4,2.9,-2.1,0.01,-0.34,-0.88,-0.33,0.0,0.0,0.0
1752780259873,47.0,-50.0,32.0,4.0,-3.0,5.0,12.1,-0.1,-0.1,-0.8,0.04,-0.47,0.37,0.0,0.0,0.0
1752780259919,39.0,-62.0,15.0,3.0,9.0,10.0,11.6,8.5,5.7,-0.8,-0.1,-0.51,0.28,0.0,0.0,0.0
1752780259949,17.0,-70.0,-32.0,2.0,13.0,10.0,12.3,10.1,6.0,-0.8,-0.2,-0.56,0.12,0.0,0.0,0.0
1752780259986,354.0,-62.0,-107.0,9.0,12.0,1.0,17.9,7.2,4.1,-0.66,-0.31,-0.69,-0.03,0.0,0.0,0.0
1752780260026,314.0,-31.0,-139.0,19.0,16.0,-8.0,23.1,13.2,-4.8,-0.39,-0.37,-0.83,-0.16,0.0,0.0,0.0
1752780260070,34.0,2.0,-157.0,30.0,13.0,-34.0,29.9,10.1,-24.8,-0.09,-0.32,-0.92,-0.22,0.0,0.0,0.0
1752780260150,359.0,-26.0,154.0,11.0,-9.0,-5.0,18.4,-8.1,5.4,-0.23,0.01,-0.95,0.21,0.0,0.0,0.0
1752780260187,93.0,-31.0,100.0,16.0,-17.0,15.0,18.4,-7.3,1.0,-0.45,0.16,-0.74,0.47,0.0,0.0,0.0
1752780260227,71.0,-23.0,52.0,6.0,-9.0,34.0,3.0,-1.9,27.8,-0.72,0.21,-0.42,0.51,0.0,0.0,0.0
1752780260376,12.0,-71.0,-58.0,3.0,18.0,4.0,12.0,15.2,2.9,-0.78,-0.21,-0.58,0.13,0.0,0.0,0.0
1752780260726,66.0,-21.0,43.0,-1.0,8.0,3.0,8.3,8.6,-0.7,-0.72,0.19,-0.42,0.52,0.0,0.0,0.0
1752780260776,25.0,-76.0,-9.0,-3.0,11.0,2.0,7.3,9.7,0.8,-0.77,-0.16,-0.6,0.17,0.0,0.0,0.0
1752780260927,8.0,-28.0,158.0,9.0,-12.0,-6.0,10.9,-5.4,3.8,-0.23,-0.06,-0.95,0.19,0.0,0.0,0.0
1752780260963,85.0,-42.0,105.0,6.0,-9.0,8.0,13.6,-2.7,10.3,-0.47,0.06,-0.77,0.43,0.0,0.0,0.0
1752780261004,74.0,-35.0,55.0,8.0,-13.0,25.0,7.7,-6.7,22.3,-0.69,0.11,-0.5,0.51,0.0,0.0,0.0
1752780261043,57.0,-20.0,31.0,-4.0,1.0,28.0,1.3,6.9,15.3,-0.84,0.14,-0.28,0.45,0.0,0.0,0.0
1752780261081,47.0,-41.0,21.0,1.0,1.0,7.0,8.2,3.7,0.8,-0.86,0.03,-0.35,0.38,0.0,0.0,0.0
1752780261130,41.0,-63.0,18.0,-2.0,4.0,3.0,6.8,5.0,-0.3,-0.8,-0.09,-0.49,0.32,0.0,0.0,0.0
1752780261164,30.0,-76.0,2.0,-4.0,13.0,4.0,6.0,12.0,2.9,-0.76,-0.15,-0.6,0.2,0.0,0.0,0.0
1752780261205,12.0,-77.0,-120.0,3.0,16.0,-2.0,14.2,12.6,-0.0,-0.66,-0.22,-0.71,0.07,0.0,0.0,0.0
1752780261244,33.0,-43.0,-165.0,17.0,13.0,-24.0,22.0,10.8,-25.0,-0.38,-0.26,-0.89,0.01,0.0,0.0,0.0
1752780261482,45.0,-58.0,16.0,2.0,3.0,4.0,10.5,4.3,0.0,-0.11,-0.13,-0.98,0.09,0.0,0.0,0.0
1752780261528,34.0,-83.0,-0.0,-2.0,10.0,0.0,7.4,9.8,0.3,-0.74,-0.18,-0.6,0.25,0.0,0.0,0.0
1752780261565,28.0,-77.0,-157.0,5.0,10.0,-7.0,13.9,8.6,-2.7,-0.61,-0.25,-0.73,0.15,0.0,0.0,0.0
1752780261605,34.0,-43.0,-172.0,13.0,14.0,-33.0,17.9,11.4,-30.2,-0.37,-0.27,-0.89,0.05,0.0,0.0,0.0
1752780261640,21.0,-25.0,177.0,7.0,-5.0,-15.0,9.5,-2.4,-2.5,-0.21,-0.18,-0.96,0.06,0.0,0.0,0.0
1752780261682,71.0,-43.0,151.0,-2.0,-8.0,-1.0,5.1,-3.7,3.6,-0.35,-0.12,-0.9,0.25,0.0,0.0,0.0
1752780261731,73.0,-55.0,104.0,-3.0,-7.0,3.0,5.4,-4.8,6.2,-0.49,-0.05,-0.78,0.37,0.0,0.0,0.0
1752780261780,70.0,-48.0,54.0,-4.0,-6.0,16.0,2.7,-1.3,11.6,-0.65,-0.0,-0.59,0.47,0.0,0.0,0.0
1752780261892,62.0,-41.0,38.0,-7.0,-3.0,20.0,-0.5,0.9,14.1,-0.76,0.03,-0.45,0.46,0.0,0.0,0.0
1752780261892,55.0,-44.0,28.0,-2.0,-2.0,12.0,4.4,3.3,5.2,-0.8,-0.01,-0.43,0.42,0.0,0.0,0.0
1752780261897,47.0,-58.0,26.0,-6.0,4.0,8.0,4.7,8.1,2.6,-0.79,-0.08,-0.51,0.34,0.0,0.0,0.0
1752780261931,38.0,-77.0,24.0,-4.0,5.0,3.0,3.2,5.3,0.9,-0.73,-0.15,-0.61,0.25,0.0,0.0,0.0
1752780261974,28.0,-76.0,-176.0,-1.0,6.0,-9.0,7.7,5.5,-5.1,-0.63,-0.2,-0.73,0.17,0.0,0.0,0.0
1752780262015,15.0,-58.0,-169.0,1.0,13.0,-21.0,8.2,11.6,-14.0,-0.48,-0.21,-0.85,0.06,0.0,0.0,0.0
1752780262054,5.0,-49.0,-170.0,-2.0,6.0,-11.0,4.1,3.2,-3.5,-0.42,-0.18,-0.89,0.02,0.0,0.0,0.0
1752780262091,28.0,-52.0,172.0,-4.0,-5.0,-9.0,4.5,-4.6,-2.1,-0.43,-0.12,-0.89,0.11,0.0,0.0,0.0
1752780262131,52.0,-51.0,145.0,-6.0,-9.0,-5.0,0.8,-4.0,0.8,-0.44,-0.02,-0.87,0.22,0.0,0.0,0.0
1752780262181,62.0,-53.0,121.0,-9.0,-6.0,1.0,-0.8,-0.1,3.5,-0.49,0.02,-0.82,0.29,0.0,0.0,0.0
1752780262225,63.0,-55.0,107.0,-9.0,-6.0,1.0,-0.5,-0.6,2.2,-0.55,0.03,-0.77,0.33,0.0,0.0,0.0
1752780262266,63.0,-56.0,104.0,-8.0,-4.0,-2.0,-0.3,1.6,-1.2,-0.56,0.02,-0.75,0.34,0.0,0.0,0.0
1752780262308,63.0,-56.0,99.0,-9.0,-5.0,0.0,-0.7,0.5,1.5,-0.58,0.03,-0.74,0.35,0.0,0.0,0.0
1752780262344,63.0,-56.0,92.0,-9.0,-8.0,2.0,-0.2,-2.1,1.8,-0.6,0.03,-0.71,0.37,0.0,0.0,0.0
1752780262396,60.0,-57.0,90.0,-9.0,-3.0,0.0,-0.5,2.4,0.1,-0.61,0.03,-0.71,0.36,0.0,0.0,0.0
1752780262439,60.0,-58.0,89.0,-9.0,-4.0,1.0,-0.5,0.2,1.3,-0.62,0.03,-0.7,0.35,0.0,0.0,0.0
1752780262580,63.0,-58.0,91.0,-8.0,-3.0,-0.0,0.3,2.4,0.0,-0.6,0.0,-0.71,0.37,0.0,0.0,0.0
1752780262631,65.0,-56.0,95.0,-6.0,-5.0,-0.0,1.5,0.4,0.5,-0.58,0.02,-0.72,0.37,0.0,0.0,0.0
1752780262656,68.0,-52.0,94.0,-7.0,-7.0,2.0,0.0,0.1,2.7,-0.57,0.05,-0.72,0.38,0.0,0.0,0.0
1752780262700,68.0,-48.0,92.0,-8.0,-13.0,6.0,1.2,-7.9,6.1,-0.58,0.1,-0.71,0.39,0.0,0.0,0.0
1752780262735,61.0,-51.0,102.0,-8.0,-5.0,1.0,0.1,0.5,2.4,-0.57,0.1,-0.73,0.36,0.0,0.0,0.0
1752780262780,44.0,-57.0,115.0,-8.0,-2.0,-1.0,0.8,2.4,1.6,-0.58,0.12,-0.77,0.25,0.0,0.0,0.0
1752780262818,36.0,-59.0,129.0,-7.0,-4.0,-3.0,1.5,-1.1,1.1,-0.55,0.09,-0.81,0.18,0.0,0.0,0.0
1752780262859,31.0,-59.0,149.0,-6.0,-2.0,-6.0,2.2,0.7,-0.2,-0.51,0.02,-0.85,0.14,0.0,0.0,0.0
1752780262899,16.0,-57.0,174.0,-6.0,3.0,-6.0,1.8,4.1,-0.8,-0.48,-0.06,-0.87,0.07,0.0,0.0,0.0
1752780262935,357.0,-51.0,-168.0,-5.0,4.0,-8.0,2.2,2.3,-1.6,-0.44,-0.12,-0.89,-0.01,0.0,0.0,0.0
1752780262985,336.0,-45.0,-155.0,-4.0,4.0,-8.0,2.4,1.3,-1.4,-0.41,-0.16,-0.89,-0.07,0.0,0.0,0.0
1752780263017,324.0,-43.0,-147.0,-4.0,11.0,-7.0,2.2,6.3,-1.2,-0.41,-0.19,-0.88,-0.14,0.0,0.0,0.0
1752780263062,313.0,-41.0,-138.0,-6.0,15.0,-6.0,-0.9,8.4,0.7,-0.43,-0.22,-0.86,-0.19,0.0,0.0,0.0
1752780263094,316.0,-43.0,-138.0,-7.0,1.0,-6.0,0.4,-2.2,-1.3,-0.44,-0.21,-0.85,-0.18,0.0,0.0,0.0
1752780263136,313.0,-42.0,-140.0,-5.0,6.0,-6.0,0.8,1.4,0.5,-0.43,-0.19,-0.86,-0.18,0.0,0.0,0.0
1752780263285,304.0,-40.0,-137.0,-6.0,5.0,-5.0,0.6,-0.8,0.7,-0.41,-0.18,-0.87,-0.22,0.0,0.0,0.0
1752780263334,297.0,-35.0,-141.0,-5.0,7.0,-4.0,0.5,2.0,2.4,-0.38,-0.18,-0.88,-0.22,0.0,0.0,0.0
1752780263371,286.0,-29.0,-143.0,-4.0,5.0,-13.0,0.5,-0.1,-5.1,-0.31,-0.17,-0.91,-0.23,0.0,0.0,0.0
1752780263418,20.0,-22.0,-149.0,-4.0,5.0,-8.0,0.7,1.3,-0.8,-0.25,-0.16,-0.93,-0.21,0.0,0.0,0.0
1752780263471,18.0,-20.0,-147.0,-1.0,7.0,-9.0,2.8,2.5,-1.9,-0.22,-0.15,-0.93,-0.24,0.0,0.0,0.0
1752780263503,16.0,-21.0,-145.0,0.0,7.0,-7.0,4.2,1.4,0.3,-0.23,-0.13,-0.93,-0.25,0.0,0.0,0.0
1752780263538,285.0,-31.0,-145.0,-4.0,3.0,-8.0,1.2,-1.8,-1.5,-0.28,-0.11,-0.92,-0.24,0.0,0.0,0.0
1752780263579,306.0,-46.0,-141.0,-11.0,6.0,1.0,-3.2,1.5,6.1,-0.4,-0.06,-0.89,-0.21,0.0,0.0,0.0
1752780263621,308.0,-50.0,-139.0,-7.0,3.0,-4.0,0.7,-0.7,0.3,-0.46,-0.04,-0.86,-0.22,0.0,0.0,0.0
1752780263669,309.0,-51.0,-140.0,-7.0,5.0,-4.0,-0.1,1.3,1.2,-0.46,-0.03,-0.86,-0.22,0.0,0.0,0.0
1752780263701,309.0,-52.0,-140.0,-7.0,6.0,-4.0,-0.4,1.6,1.3,-0.46,-0.02,-0.86,-0.22,0.0,0.0,0.0
1752780263738,311.0,-54.0,-142.0,-8.0,3.0,-4.0,0.4,-0.2,0.3,-0.47,-0.01,-0.86,-0.22,0.0,0.0,0.0
1752780263789,312.0,-55.0,-142.0,-8.0,5.0,-4.0,0.1,1.7,0.8,-0.48,0.01,-0.85,-0.21,0.0,0.0,0.0
1752780263837,312.0,-55.0,-143.0,-8.0,3.0,-4.0,-0.4,0.1,0.7,-0.48,0.02,-0.85,-0.21,0.0,0.0,0.0
1752780263860,311.0,-54.0,-146.0,-5.0,2.0,-8.0,2.4,-2.3,-2.3,-0.46,0.03,-0.86,-0.21,0.0,0.0,0.0
1752780263897,313.0,-52.0,-148.0,-8.0,4.0,-4.0,0.1,0.1,1.6,-0.45,0.02,-0.87,-0.19,0.0,0.0,0.0
1752780263945,312.0,-52.0,-143.0,-9.0,5.0,-2.0,-1.2,1.5,1.9,-0.46,-0.02,-0.86,-0.2,0.0,0.0,0.0
1752780263980,307.0,-49.0,-140.0,-7.0,6.0,-6.0,0.6,2.1,-0.9,-0.45,-0.03,-0.86,-0.22,0.0,0.0,0.0
1752780264030,307.0,-49.0,-141.0,-8.0,4.0,-3.0,0.0,0.4,1.9,-0.45,-0.03,-0.87,-0.22,0.0,0.0,0.0
1752780264063,311.0,-51.0,-143.0,-8.0,2.0,-2.0,-0.3,-1.9,1.7,-0.46,-0.02,-0.86,-0.21,0.0,0.0,0.0
1752780264096,313.0,-51.0,-146.0,-7.0,5.0,-7.0,0.6,1.5,-1.4,-0.45,-0.01,-0.87,-0.2,0.0,0.0,0.0
1752780264136,310.0,-49.0,-146.0,-8.0,5.0,-5.0,-0.8,0.5,0.7,-0.43,-0.01,-0.88,-0.2,0.0,0.0,0.0
1752780264187,313.0,-50.0,-149.0,-4.0,6.0,-11.0,2.8,2.1,-2.6,-0.43,-0.01,-0.88,-0.19,0.0,0.0,0.0
1752780264229,318.0,-53.0,-150.0,-7.0,3.0,-1.0,1.4,-0.2,1.9,-0.45,0.0,-0.88,-0.18,0.0,0.0,0.0
1752780264374,324.0,-59.0,-155.0,-9.0,-2.0,-3.0,-0.2,-3.9,1.2,-0.49,0.06,-0.85,-0.16,0.0,0.0,0.0
1752780264428,330.0,-60.0,-162.0,-9.0,3.0,-3.0,2.2,3.6,-0.3,-0.49,0.07,-0.86,-0.13,0.0,0.0,0.0
1752780264559,323.0,-61.0,-159.0,-8.0,1.0,-3.0,0.2,-1.1,1.0,-0.5,0.11,-0.85,-0.16,0.0,0.0,0.0
1752780264593,320.0,-61.0,-156.0,-10.0,1.0,-4.0,-1.1,-0.6,0.1,-0.49,0.11,-0.84,-0.18,0.0,0.0,0.0
1752780264633,319.0,-58.0,-154.0,-6.0,1.0,-4.0,2.7,-1.1,1.3,-0.49,0.08,-0.85,-0.18,0.0,0.0,0.0
1752780264674,317.0,-55.0,-153.0,-7.0,4.0,-5.0,1.2,1.3,-0.4,-0.46,0.06,-0.87,-0.18,0.0,0.0,0.0
1752780264723,305.0,-53.0,-139.0,-9.0,4.0,-7.0,-0.1,-0.9,-1.7,-0.46,0.02,-0.86,-0.23,0.0,0.0,0.0
1752780264855,293.0,-47.0,-90.0,-6.0,8.0,3.0,1.5,1.4,2.6,-0.57,-0.11,-0.72,-0.38,0.0,0.0,0.0
1752780264901,295.0,-44.0,-83.0,-4.0,6.0,3.0,2.2,-0.7,2.3,-0.61,-0.15,-0.67,-0.39,0.0,0.0,0.0
1752780264935,295.0,-40.0,-79.0,-3.0,7.0,3.0,2.9,-0.3,1.6,-0.64,-0.18,-0.63,-0.4,0.0,0.0,0.0
1752780264978,294.0,-37.0,-79.0,-3.0,9.0,3.0,2.4,0.9,1.2,-0.64,-0.22,-0.61,-0.41,0.0,0.0,0.0
1752780265021,293.0,-34.0,-79.0,-3.0,8.0,2.0,1.8,0.6,0.5,-0.63,-0.24,-0.6,-0.42,0.0,0.0,0.0
1752780265051,291.0,-32.0,-78.0,-4.0,9.0,2.0,0.9,0.3,0.4,-0.63,-0.25,-0.59,-0.43,0.0,0.0,0.0
1752780265095,291.0,-31.0,-79.0,-4.0,9.0,2.0,1.1,0.1,0.8,-0.63,-0.26,-0.59,-0.43,0.0,0.0,0.0
1752780265338,291.0,-30.0,-79.0,-4.0,9.0,1.0,0.7,0.3,-0.2,-0.63,-0.28,-0.59,-0.43,0.0,0.0,0.0
1752780265582,289.0,-33.0,-88.0,7.0,15.0,15.0,14.5,7.4,16.4,-0.62,-0.29,-0.59,-0.43,0.0,0.0,0.0
1752780265729,184.0,-27.0,-129.0,-6.0,0.0,-12.0,-0.7,-6.4,-7.4,-0.02,0.46,-0.75,-0.47,0.0,0.0,0.0
1752780265781,173.0,-28.0,-126.0,-3.0,4.0,-10.0,1.0,-2.6,-3.7,0.03,0.53,-0.69,-0.49,0.0,0.0,0.0
1752780265816,166.0,-27.0,-124.0,-4.0,4.0,-8.0,0.1,-3.0,-3.3,0.06,0.54,-0.68,-0.5,0.0,0.0,0.0
1752780265858,161.0,-26.0,-121.0,-4.0,6.0,-6.0,0.3,-1.5,-1.2,0.08,0.54,-0.67,-0.51,0.0,0.0,0.0
1752780265897,159.0,-24.0,-119.0,-4.0,8.0,-6.0,0.3,-0.3,-2.0,0.1,0.52,-0.67,-0.52,0.0,0.0,0.0
1752780265935,157.0,-22.0,-118.0,-4.0,9.0,-5.0,-0.3,0.8,-1.0,0.1,0.5,-0.69,-0.52,0.0,0.0,0.0
1752780266083,157.0,-21.0,-118.0,-4.0,8.0,-6.0,-0.8,-0.4,-1.7,0.11,0.48,-0.69,-0.52,0.0,0.0,0.0
1752780266127,161.0,-20.0,-117.0,-4.0,6.0,-8.0,-0.6,-2.7,-4.8,0.09,0.44,-0.72,-0.53,0.0,0.0,0.0
1752780266169,167.0,-20.0,-113.0,-2.0,4.0,-11.0,2.9,-4.6,-8.4,0.06,0.4,-0.73,-0.56,0.0,0.0,0.0
1752780266203,178.0,-19.0,-111.0,4.0,13.0,-8.0,6.2,5.5,-4.6,0.01,0.29,-0.76,-0.58,0.0,0.0,0.0
1752780266453,301.0,-34.0,-114.0,-3.0,8.0,-0.0,2.2,0.7,3.0,-0.4,-0.22,-0.81,-0.37,0.0,0.0,0.0
1752780266487,303.0,-34.0,-112.0,-4.0,8.0,-1.0,1.1,0.6,1.7,-0.52,-0.34,-0.73,-0.28,0.0,0.0,0.0
1752780266537,303.0,-34.0,-112.0,-3.0,9.0,-2.0,2.0,1.7,0.9,-0.51,-0.35,-0.73,-0.28,0.0,0.0,0.0
1752780266567,302.0,-33.0,-113.0,-3.0,8.0,-2.0,1.8,0.6,1.5,-0.51,-0.35,-0.73,-0.28,0.0,0.0,0.0
1752780266604,300.0,-33.0,-112.0,-4.0,9.0,-2.0,2.1,1.8,1.8,-0.51,-0.34,-0.74,-0.29,0.0,0.0,0.0
1752780266653,296.0,-33.0,-113.0,-3.0,12.0,1.0,2.5,4.0,3.9,-0.49,-0.32,-0.75,-0.31,0.0,0.0,0.0
1752780266687,284.0,-33.0,-114.0,-0.0,15.0,5.0,5.2,7.6,8.4,-0.46,-0.26,-0.77,-0.34,0.0,0.0,0.0
1752780266734,270.0,-34.0,-118.0,11.0,17.0,8.0,16.1,10.5,12.9,-0.39,-0.12,-0.82,-0.39,0.0,0.0,0.0
1752780266768,235.0,-24.0,-134.0,18.0,8.0,-8.0,32.1,2.4,-13.9,-0.2,0.07,-0.9,-0.38,0.0,0.0,0.0
1752780266804,321.0,-5.0,-138.0,9.0,2.0,-36.0,7.9,-15.2,-26.9,0.07,0.31,-0.88,-0.36,0.0,0.0,0.0
1752780266845,155.0,-13.0,-135.0,-6.0,-4.0,-7.0,-2.3,-8.7,-2.4,0.09,0.46,-0.79,-0.39,0.0,0.0,0.0
1752780266888,297.0,-13.0,-137.0,-2.0,4.0,-9.0,-0.2,-2.3,-1.6,0.09,0.48,-0.78,-0.38,0.0,0.0,0.0
1752780266935,297.0,-13.0,-137.0,-3.0,4.0,-8.0,-0.9,-2.1,-0.7,0.09,0.49,-0.79,-0.37,0.0,0.0,0.0
1752780266970,297.0,-12.0,-137.0,-2.0,5.0,-7.0,-0.3,-1.6,0.1,0.09,0.48,-0.79,-0.37,0.0,0.0,0.0
1752780267005,299.0,-11.0,-136.0,-2.0,7.0,-8.0,-0.3,0.9,-1.5,0.09,0.47,-0.79,-0.37,0.0,0.0,0.0
1752780267048,301.0,-11.0,-136.0,-2.0,7.0,-8.0,-0.5,0.4,-1.5,0.09,0.46,-0.8,-0.37,0.0,0.0,0.0
1752780267107,302.0,-11.0,-137.0,-2.0,7.0,-8.0,-0.5,-0.1,-0.9,0.09,0.45,-0.81,-0.37,0.0,0.0,0.0
1752780267138,303.0,-11.0,-137.0,-3.0,6.0,-8.0,-0.7,-1.7,-1.9,0.08,0.44,-0.81,-0.37,0.0,0.0,0.0
1752780267186,305.0,-11.0,-137.0,-1.0,-0.0,-18.0,9.2,-5.7,-17.7,0.07,0.42,-0.82,-0.37,0.0,0.0,0.0
1752780267237,321.0,-13.0,-138.0,5.0,4.0,-16.0,8.9,-0.2,-8.5,0.02,0.35,-0.86,-0.37,0.0,0.0,0.0
1752780267269,215.0,-18.0,-137.0,5.0,8.0,-10.0,8.3,1.5,-2.4,-0.12,0.12,-0.91,-0.37,0.0,0.0,0.0
1752780267309,251.0,-24.0,-133.0,2.0,13.0,-1.0,4.4,5.1,7.7,-0.25,-0.07,-0.9,-0.36,0.0,0.0,0.0
1752780267349,272.0,-30.0,-123.0,-1.0,11.0,3.0,4.1,2.8,7.4,-0.37,-0.17,-0.84,-0.36,0.0,0.0,0.0
1752780267491,281.0,-26.0,-117.0,-3.0,10.0,-5.0,1.5,1.8,-0.8,-0.43,-0.32,-0.77,-0.35,0.0,0.0,0.0
1752780267539,281.0,-25.0,-117.0,-2.0,10.0,-4.0,1.6,1.9,-0.1,-0.42,-0.33,-0.77,-0.35,0.0,0.0,0.0
1752780267573,282.0,-25.0,-116.0,-2.0,9.0,-3.0,2.0,0.9,1.0,-0.42,-0.33,-0.77,-0.34,0.0,0.0,0.0
1752780267606,283.0,-26.0,-116.0,-1.0,10.0,-1.0,4.0,3.3,4.5,-0.43,-0.33,-0.77,-0.34,0.0,0.0,0.0
1752780267652,280.0,-27.0,-115.0,1.0,15.0,5.0,7.1,11.5,14.6,-0.43,-0.29,-0.78,-0.36,0.0,0.0,0.0
1752780267699,269.0,-32.0,-121.0,18.0,16.0,6.0,22.9,9.8,10.8,-0.4,-0.16,-0.82,-0.39,0.0,0.0,0.0
1752780267731,250.0,-28.0,-141.0,24.0,3.0,-28.0,27.2,-2.3,-20.2,-0.23,0.07,-0.92,-0.32,0.0,0.0,0.0
1752780267770,318.0,-14.0,-147.0,4.0,0.0,-33.0,5.1,-7.5,-24.1,-0.02,0.34,-0.89,-0.3,0.0,0.0,0.0
1752780267810,294.0,-16.0,-146.0,-4.0,-10.0,-8.0,-1.5,-10.8,-4.4,0.03,0.52,-0.8,-0.31,0.0,0.0,0.0
1752780267847,287.0,-16.0,-147.0,-3.0,-1.0,-11.0,-0.7,-5.5,-1.4,0.05,0.56,-0.77,-0.31,0.0,0.0,0.0
1752780267890,290.0,-14.0,-149.0,-3.0,3.0,-8.0,-0.6,-2.2,0.0,0.04,0.56,-0.78,-0.29,0.0,0.0,0.0
1752780267942,291.0,-13.0,-148.0,-2.0,5.0,-9.0,0.0,-0.6,-0.8,0.05,0.54,-0.79,-0.29,0.0,0.0,0.0
1752780267976,294.0,-12.0,-148.0,-2.0,6.0,-9.0,0.0,1.0,-1.2,0.06,0.52,-0.8,-0.29,0.0,0.0,0.0
1752780268008,297.0,-10.0,-149.0,-2.0,6.0,-9.0,-0.3,1.7,-0.9,0.06,0.5,-0.82,-0.27,0.0,0.0,0.0
1752780268051,298.0,-10.0,-148.0,-3.0,6.0,-8.0,-0.8,0.7,0.4,0.06,0.49,-0.82,-0.28,0.0,0.0,0.0
1752780268110,299.0,-10.0,-149.0,-2.0,5.0,-8.0,-0.5,-0.2,0.0,0.06,0.49,-0.82,-0.28,0.0,0.0,0.0
1752780268141,299.0,-11.0,-149.0,-3.0,5.0,-8.0,-0.9,-0.4,0.1,0.05,0.49,-0.83,-0.27,0.0,0.0,0.0
1752780268192,300.0,-11.0,-149.0,-3.0,5.0,-8.0,-0.8,0.0,0.2,0.05,0.48,-0.83,-0.28,0.0,0.0,0.0
1752780268226,300.0,-11.0,-149.0,-3.0,5.0,-8.0,-0.8,0.0,0.2,0.04,0.48,-0.83,-0.28,0.0,0.0,0.0
1752780268259,301.0,-12.0,-149.0,-3.0,5.0,-8.0,-0.8,-0.4,0.1,0.03,0.47,-0.83,-0.28,0.0,0.0,0.0
1752780268304,301.0,-13.0,-148.0,-3.0,5.0,-8.0,-0.8,0.3,0.5,0.03,0.47,-0.83,-0.29,0.0,0.0,0.0
1752780268554,303.0,-13.0,-148.0,-3.0,6.0,-7.0,-0.5,-0.1,0.4,0.03,0.47,-0.84,-0.29,0.0,0.0,0.0
1752780268697,305.0,-15.0,-146.0,-3.0,5.0,-8.0,-0.2,0.4,0.3,0.01,0.44,-0.84,-0.32,0.0,0.0,0.0
1752780269053,309.0,-15.0,-145.0,-3.0,6.0,-8.0,-0.3,0.2,-0.1,-0.0,0.41,-0.85,-0.32,0.0,0.0,0.0
1752780269197,309.0,-16.0,-145.0,-3.0,5.0,-8.0,-0.1,-0.1,0.0,-0.01,0.41,-0.85,-0.33,0.0,0.0,0.0
1752780269244,309.0,-17.0,-145.0,-3.0,5.0,-8.0,-0.0,0.1,-0.0,-0.01,0.41,-0.85,-0.33,0.0,0.0,0.0
1752780269594,310.0,-17.0,-145.0,-3.0,5.0,-8.0,-0.1,0.2,0.1,-0.01,0.4,-0.86,-0.33,0.0,0.0,0.0
1752780269645,310.0,-17.0,-145.0,-3.0,5.0,-8.0,0.0,-0.3,-0.1,-0.02,0.4,-0.86,-0.32,0.0,0.0,0.0
1752780269698,310.0,-17.0,-145.0,-3.0,5.0,-8.0,-0.1,0.0,0.1,-0.02,0.4,-0.86,-0.33,0.0,0.0,0.0
1752780270254,316.0,-19.0,-151.0,-3.0,4.0,-10.0,-0.0,-0.4,-1.7,-0.03,0.39,-0.86,-0.33,0.0,0.0,0.0
1752780270303,320.0,-20.0,-154.0,-7.0,3.0,-7.0,-3.3,-0.8,0.9,-0.09,0.34,-0.9,-0.27,0.0,0.0,0.0
1752780270353,326.0,-19.0,-153.0,-1.0,2.0,-13.0,1.9,-4.4,-4.7,-0.09,0.28,-0.92,-0.27,0.0,0.0,0.0
1752780270387,340.0,-18.0,-150.0,2.0,3.0,-11.0,4.7,-1.8,-3.6,-0.11,0.17,-0.94,-0.27,0.0,0.0,0.0
1752780270437,357.0,-19.0,-146.0,1.0,7.0,-9.0,5.1,2.7,-2.6,-0.16,0.03,-0.94,-0.29,0.0,0.0,0.0
1752780270463,13.0,-21.0,-143.0,1.0,7.0,-8.0,4.4,1.0,0.3,-0.22,-0.11,-0.93,-0.28,0.0,0.0,0.0
1752780270504,274.0,-23.0,-139.0,-1.0,9.0,-4.0,3.4,2.5,3.2,-0.29,-0.22,-0.89,-0.27,0.0,0.0,0.0
1752780270651,300.0,-27.0,-129.0,-3.0,8.0,-5.0,1.1,1.6,0.2,-0.4,-0.39,-0.79,-0.24,0.0,0.0,0.0
1752780270701,302.0,-26.0,-128.0,-2.0,7.0,-5.0,1.8,-0.2,0.8,-0.41,-0.42,-0.78,-0.23,0.0,0.0,0.0
1752780270738,303.0,-25.0,-130.0,-1.0,12.0,-3.0,3.2,4.9,2.9,-0.4,-0.45,-0.77,-0.22,0.0,0.0,0.0
1752780270779,304.0,-24.0,-132.0,1.0,17.0,3.0,6.8,15.5,12.0,-0.39,-0.46,-0.77,-0.21,0.0,0.0,0.0
1752780270818,300.0,-25.0,-136.0,17.0,25.0,9.0,28.4,14.5,8.3,-0.36,-0.39,-0.82,-0.21,0.0,0.0,0.0
1752780270854,22.0,-22.0,-146.0,32.0,0.0,-21.0,33.3,-12.4,-18.0,-0.25,-0.18,-0.92,-0.23,0.0,0.0,0.0
1752780270902,336.0,-7.0,-146.0,4.0,-1.0,-31.0,5.9,-6.2,-23.0,-0.02,0.14,-0.96,-0.26,0.0,0.0,0.0
1752780270938,317.0,-16.0,-149.0,-2.0,-5.0,-7.0,1.4,-9.4,1.6,-0.02,0.33,-0.9,-0.3,0.0,0.0,0.0
1752780270988,312.0,-21.0,-155.0,-3.0,-3.0,-11.0,-0.5,-6.0,-1.2,-0.09,0.39,-0.88,-0.27,0.0,0.0,0.0
1752780271019,311.0,-22.0,-160.0,-8.0,-3.0,-9.0,0.6,-6.1,-1.3,-0.11,0.4,-0.88,-0.23,0.0,0.0,0.0
1752780271053,310.0,-24.0,-163.0,-3.0,-0.0,-7.0,0.8,-0.7,0.7,-0.13,0.41,-0.88,-0.21,0.0,0.0,0.0
1752780271103,313.0,-24.0,-162.0,-4.0,1.0,-13.0,-0.3,-1.8,-4.9,-0.13,0.39,-0.88,-0.22,0.0,0.0,0.0
1752780271153,315.0,-24.0,-162.0,-4.0,-0.0,-9.0,0.1,-4.2,0.1,-0.14,0.37,-0.89,-0.22,0.0,0.0,0.0
1752780271188,320.0,-25.0,-161.0,-2.0,2.0,-17.0,2.2,-1.3,-8.7,-0.16,0.33,-0.9,-0.22,0.0,0.0,0.0
1752780271231,330.0,-32.0,-161.0,-1.0,-2.0,-12.0,5.1,-5.5,-4.0,-0.23,0.24,-0.92,-0.22,0.0,0.0,0.0
1752780271264,305.0,-42.0,-157.0,2.0,5.0,-5.0,7.6,4.3,3.3,-0.36,0.06,-0.91,-0.18,0.0,0.0,0.0
1752780271305,307.0,-42.0,-148.0,-1.0,11.0,1.0,3.7,6.4,7.4,-0.39,-0.07,-0.9,-0.19,0.0,0.0,0.0
1752780271454,311.0,-41.0,-145.0,-2.0,22.0,-17.0,-0.2,14.2,-11.4,-0.4,-0.13,-0.89,-0.18,0.0,0.0,0.0
1752780271490,236.0,-11.0,-122.0,-4.0,8.0,-10.0,-0.9,0.4,-4.5,-0.23,-0.22,-0.84,-0.43,0.0,0.0,0.0
1752780271637,290.0,-28.0,-120.0,-2.0,5.0,1.0,3.8,-2.4,6.2,-0.32,-0.25,-0.84,-0.36,0.0,0.0,0.0
1752780271778,283.0,-28.0,-119.0,7.0,17.0,3.0,13.1,13.1,7.0,-0.42,-0.28,-0.8,-0.34,0.0,0.0,0.0
1752780271919,308.0,-21.0,-161.0,1.0,-12.0,-17.0,0.0,-9.3,-0.2,-0.1,0.43,-0.87,-0.22,0.0,0.0,0.0
1752780271956,304.0,-28.0,-171.0,-5.0,-7.0,-10.0,-0.4,-7.3,-1.3,-0.18,0.46,-0.85,-0.18,0.0,0.0,0.0
1752780272002,300.0,-32.0,-178.0,-5.0,-5.0,-3.0,0.6,-5.0,5.7,-0.22,0.47,-0.84,-0.16,0.0,0.0,0.0
1752780272041,299.0,-33.0,-179.0,-4.0,-1.0,-5.0,0.8,-0.8,2.8,-0.24,0.49,-0.83,-0.15,0.0,0.0,0.0
1752780272087,300.0,-32.0,-177.0,-4.0,-1.0,-8.0,2.0,-1.6,0.3,-0.22,0.48,-0.83,-0.16,0.0,0.0,0.0
1752780272125,301.0,-32.0,-175.0,-5.0,1.0,-5.0,-0.1,-0.5,1.0,-0.22,0.47,-0.84,-0.17,0.0,0.0,0.0
1752780272161,303.0,-31.0,-170.0,-4.0,1.0,-11.0,-0.8,-2.8,-1.6,-0.2,0.46,-0.85,-0.19,0.0,0.0,0.0
1752780272312,334.0,-22.0,-157.0,6.0,3.0,-19.0,9.3,-1.2,-10.7,-0.14,0.25,-0.93,-0.22,0.0,0.0,0.0
1752780272350,352.0,-24.0,-148.0,9.0,8.0,-13.0,8.6,2.7,-2.9,-0.17,0.1,-0.94,-0.26,0.0,0.0,0.0
1752780272401,279.0,-32.0,-139.0,2.0,15.0,-2.0,6.8,8.8,4.1,-0.32,-0.1,-0.9,-0.28,0.0,0.0,0.0
1752780272435,294.0,-33.0,-130.0,1.0,8.0,-1.0,6.4,-0.7,4.9,-0.4,-0.26,-0.84,-0.26,0.0,0.0,0.0
1752780272470,307.0,-34.0,-127.0,1.0,8.0,3.0,5.7,3.1,8.0,-0.45,-0.34,-0.79,-0.22,0.0,0.0,0.0
1752780272512,307.0,-31.0,-123.0,0.0,9.0,1.0,5.4,1.9,5.1,-0.47,-0.39,-0.76,-0.23,0.0,0.0,0.0
1752780272563,301.0,-28.0,-122.0,1.0,10.0,-0.0,5.3,3.0,4.4,-0.45,-0.41,-0.75,-0.25,0.0,0.0,0.0
1752780272915,324.0,-21.0,-162.0,-3.0,1.0,-8.0,0.6,-1.9,0.9,-0.13,0.3,-0.92,-0.21,0.0,0.0,0.0
1752780272954,322.0,-22.0,-165.0,-3.0,2.0,-7.0,0.5,-0.7,1.9,-0.13,0.32,-0.92,-0.19,0.0,0.0,0.0
1752780272995,321.0,-22.0,-166.0,-4.0,2.0,-8.0,-0.1,-0.4,0.6,-0.14,0.32,-0.92,-0.18,0.0,0.0,0.0
1752780273044,321.0,-20.0,-166.0,-2.0,1.0,-10.0,1.5,-0.8,-3.0,-0.13,0.32,-0.92,-0.17,0.0,0.0,0.0
1752780273074,321.0,-18.0,-165.0,-3.0,1.0,-12.0,-0.9,-1.9,-2.7,-0.1,0.32,-0.93,-0.17,0.0,0.0,0.0
1752780273210,339.0,-20.0,-160.0,6.0,0.0,-15.0,10.0,-1.2,-5.0,-0.11,0.32,-0.92,-0.18,0.0,0.0,0.0
1752780273358,293.0,-28.0,-124.0,0.0,12.0,4.0,4.6,5.1,8.5,-0.41,-0.32,-0.81,-0.28,0.0,0.0,0.0
1752780273395,294.0,-26.0,-120.0,0.0,9.0,-0.0,4.3,1.5,4.0,-0.44,-0.4,-0.75,-0.29,0.0,0.0,0.0
1752780273440,294.0,-24.0,-120.0,1.0,10.0,1.0,4.7,4.4,6.0,-0.44,-0.43,-0.74,-0.28,0.0,0.0,0.0
1752780273478,292.0,-23.0,-118.0,1.0,17.0,5.0,5.7,8.1,10.6,-0.44,-0.43,-0.73,-0.3,0.0,0.0,0.0
1752780273517,285.0,-24.0,-120.0,10.0,17.0,4.0,13.7,9.3,9.1,-0.43,-0.39,-0.75,-0.31,0.0,0.0,0.0
1752780273561,263.0,-21.0,-132.0,17.0,19.0,-1.0,20.4,12.0,5.3,-0.33,-0.27,-0.85,-0.32,0.0,0.0,0.0
1752780273641,327.0,-2.0,-149.0,16.0,-12.0,-34.0,9.0,-19.3,-18.6,0.05,0.27,-0.92,-0.26,0.0,0.0,0.0
1752780273678,316.0,-8.0,-159.0,-2.0,-9.0,-9.0,-1.0,-8.6,2.1,0.0,0.36,-0.91,-0.2,0.0,0.0,0.0
1752780273728,320.0,-16.0,-163.0,-4.0,1.0,-7.0,-0.4,-1.7,1.5,-0.08,0.33,-0.92,-0.18,0.0,0.0,0.0
1752780273761,321.0,-18.0,-165.0,-4.0,1.0,-5.0,-0.5,-1.2,3.5,-0.1,0.33,-0.92,-0.17,0.0,0.0,0.0
1752780273795,321.0,-18.0,-165.0,-2.0,1.0,-10.0,1.0,-1.6,-0.8,-0.11,0.33,-0.92,-0.17,0.0,0.0,0.0
1752780273847,321.0,-18.0,-167.0,-3.0,1.0,-7.0,-0.2,-1.0,2.2,-0.11,0.33,-0.93,-0.16,0.0,0.0,0.0
1752780273905,322.0,-18.0,-168.0,-3.0,2.0,-8.0,-0.1,-0.4,1.6,-0.12,0.32,-0.93,-0.15,0.0,0.0,0.0
1752780273915,322.0,-18.0,-168.0,-3.0,2.0,-9.0,0.0,-0.5,0.5,-0.12,0.32,-0.93,-0.15,0.0,0.0,0.0
1752780274055,331.0,-16.0,-162.0,11.0,-9.0,-18.0,0.0,0.0,0.0,-0.08,0.28,-0.94,-0.17,0.0,0.0,0.0
1752780274135,18.0,-21.0,-142.0,8.0,15.0,-3.0,8.7,9.0,6.2,-0.24,-0.14,-0.92,-0.27,0.0,0.0,0.0
1752780274172,281.0,-23.0,-131.0,2.0,14.0,-1.0,5.9,6.6,2.4,-0.35,-0.32,-0.84,-0.28,0.0,0.0,0.0
1752780274318,305.0,-20.0,-122.0,-3.0,8.0,-1.0,0.7,-0.1,3.7,-0.39,-0.42,-0.77,-0.27,0.0,0.0,0.0
1752780274356,306.0,-19.0,-120.0,-4.0,9.0,-2.0,-0.4,0.5,2.5,-0.45,-0.56,-0.65,-0.23,0.0,0.0,0.0
1752780274506,301.0,-14.0,-116.0,1.0,12.0,-2.0,4.3,2.6,2.7,-0.46,-0.57,-0.64,-0.24,0.0,0.0,0.0
1752780274546,303.0,-14.0,-118.0,-9.0,9.0,17.0,-5.9,0.6,21.0,-0.46,-0.61,-0.59,-0.25,0.0,0.0,0.0
1752780274589,313.0,-16.0,-118.0,8.0,16.0,0.0,4.2,6.9,13.8,-0.48,-0.64,-0.57,-0.21,0.0,0.0,0.0
1752780274624,304.0,-16.0,-121.0,9.0,17.0,-3.0,11.4,8.8,-1.6,-0.45,-0.59,-0.63,-0.24,0.0,0.0,0.0
1752780274773,349.0,-14.0,-157.0,39.0,-11.0,-31.0,41.2,-13.3,-21.3,-0.15,0.0,-0.96,-0.25,0.0,0.0,0.0
1752780274814,318.0,-12.0,176.0,9.0,-24.0,-6.0,11.4,-22.4,3.3,-0.08,0.31,-0.95,-0.04,0.0,0.0,0.0
1752780274855,310.0,-23.0,166.0,1.0,1.0,-5.0,4.9,3.4,3.4,-0.23,0.42,-0.88,0.02,0.0,0.0,0.0
1752780274890,301.0,-24.0,158.0,5.0,-5.0,-8.0,7.5,-1.7,0.5,-0.27,0.48,-0.84,0.05,0.0,0.0,0.0
1752780274924,50.0,-21.0,139.0,4.0,-14.0,-2.0,7.3,-10.4,5.6,-0.35,0.52,-0.76,0.16,0.0,0.0,0.0
1752780274973,56.0,-18.0,121.0,-1.0,-18.0,7.0,0.9,-4.6,10.9,-0.44,0.57,-0.65,0.24,0.0,0.0,0.0
1752780275023,50.0,-20.0,119.0,-1.0,-9.0,-3.0,2.6,-0.8,1.2,-0.48,0.58,-0.63,0.22,0.0,0.0,0.0
1752780275157,55.0,-20.0,116.0,-2.0,-10.0,-2.0,1.6,-2.1,1.6,-0.47,0.58,-0.62,0.23,0.0,0.0,0.0
1752780275204,58.0,-20.0,115.0,-1.0,-12.0,0.0,2.3,-4.0,4.1,-0.48,0.53,-0.65,0.27,0.0,0.0,0.0
1752780275240,59.0,-20.0,117.0,1.0,-22.0,1.0,4.9,-14.0,5.7,-0.46,0.53,-0.66,0.26,0.0,0.0,0.0
1752780275281,59.0,-21.0,123.0,2.0,-15.0,-1.0,7.3,-8.5,2.6,-0.43,0.51,-0.7,0.24,0.0,0.0,0.0
1752780275316,55.0,-26.0,133.0,4.0,-13.0,-8.0,11.8,-6.0,-4.9,-0.39,0.43,-0.79,0.2,0.0,0.0,0.0
1752780275569,355.0,-47.0,-165.0,1.0,13.0,1.0,6.9,4.5,3.2,-0.31,0.32,-0.88,0.13,0.0,0.0,0.0
1752780275711,358.0,-40.0,-87.0,-0.0,6.0,-1.0,5.5,-1.7,-3.5,-0.71,-0.51,-0.48,-0.02,0.0,0.0,0.0
1752780275878,7.0,-34.0,-69.0,-1.0,12.0,10.0,4.8,5.0,7.0,-0.8,-0.5,-0.31,0.05,0.0,0.0,0.0
1752780275895,10.0,-39.0,-69.0,-3.0,18.0,13.0,4.0,10.6,8.6,-0.8,-0.49,-0.35,0.07,0.0,0.0,0.0
1752780275935,13.0,-55.0,-79.0,2.0,2.0,-3.0,10.9,-5.4,-4.0,-0.74,-0.43,-0.51,0.08,0.0,0.0,0.0
1752780275969,19.0,-69.0,-109.0,-3.0,11.0,-0.0,5.9,12.1,1.6,-0.66,-0.36,-0.65,0.11,0.0,0.0,0.0
1752780276016,24.0,-60.0,-174.0,9.0,-1.0,-27.0,19.6,-18.7,-27.3,-0.54,-0.26,-0.79,0.09,0.0,0.0,0.0
1752780276062,61.0,-52.0,148.0,-9.0,1.0,-4.0,-1.3,4.9,0.3,-0.4,-0.12,-0.88,0.22,0.0,0.0,0.0
1752780276105,70.0,-53.0,130.0,-1.0,-20.0,-13.0,6.1,-13.9,-9.9,-0.45,-0.07,-0.83,0.32,0.0,0.0,0.0
1752780276146,86.0,-44.0,113.0,-0.0,-17.0,-7.0,5.2,-7.2,-0.4,-0.44,0.0,-0.8,0.41,0.0,0.0,0.0
1752780276186,76.0,-50.0,87.0,-8.0,-9.0,5.0,1.8,-5.8,2.3,-0.56,0.02,-0.7,0.44,0.0,0.0,0.0
1752780276219,71.0,-51.0,68.0,-3.0,-11.0,3.0,4.2,-1.3,3.0,-0.64,0.02,-0.62,0.45,0.0,0.0,0.0
1752780276268,58.0,-51.0,43.0,-3.0,-3.0,6.0,4.3,1.6,2.2,-0.73,0.01,-0.54,0.42,0.0,0.0,0.0
1752780276318,50.0,-45.0,21.0,-4.0,-4.0,12.0,3.5,-2.4,5.1,-0.81,-0.03,-0.44,0.39,0.0,0.0,0.0
1752780276352,43.0,-38.0,5.0,-4.0,1.0,14.0,1.8,0.7,6.0,-0.88,-0.08,-0.31,0.34,0.0,0.0,0.0
1752780276401,34.0,-34.0,-8.0,-1.0,2.0,8.0,3.8,1.0,0.0,-0.91,-0.14,-0.26,0.28,0.0,0.0,0.0
1752780276433,26.0,-31.0,-18.0,-1.0,2.0,10.0,3.6,-1.2,2.6,-0.93,-0.2,-0.24,0.21,0.0,0.0,0.0
1752780276482,15.0,-28.0,-30.0,-1.0,6.0,10.0,3.1,1.3,2.3,-0.93,-0.25,-0.21,0.14,0.0,0.0,0.0
1752780276518,5.0,-28.0,-36.0,-1.0,7.0,7.0,3.2,1.4,-0.0,-0.93,-0.29,-0.23,0.06,0.0,0.0,0.0
1752780276565,0.0,-28.0,-41.0,-2.0,6.0,12.0,2.9,0.1,5.7,-0.91,-0.32,-0.26,0.0,0.0,0.0,0.0
1752780276598,351.0,-32.0,-52.0,-0.0,7.0,6.0,5.1,-0.5,1.5,-0.88,-0.35,-0.31,-0.05,0.0,0.0,0.0
1752780276749,333.0,-52.0,-98.0,-4.0,9.0,-4.0,3.4,5.8,-2.6,-0.66,-0.3,-0.67,-0.16,0.0,0.0,0.0
1752780276783,332.0,-55.0,-110.0,-5.0,11.0,-4.0,4.0,4.0,-2.2,-0.61,-0.25,-0.73,-0.15,0.0,0.0,0.0
1752780276826,339.0,-61.0,-136.0,-4.0,-2.0,-8.0,4.3,-4.8,-4.3,-0.57,-0.16,-0.79,-0.12,0.0,0.0,0.0
1752780276869,342.0,-62.0,-150.0,-7.0,11.0,-11.0,3.7,8.8,-6.8,-0.54,-0.1,-0.83,-0.09,0.0,0.0,0.0
1752780277119,46.0,-55.0,82.0,-7.0,-8.0,-1.0,1.1,-2.1,-2.2,-0.67,0.14,-0.67,0.28,0.0,0.0,0.0
1752780277368,47.0,-55.0,71.0,-6.0,-9.0,3.0,0.5,-0.0,0.0,-0.71,0.12,-0.63,0.3,0.0,0.0,0.0
1752780277504,34.0,-46.0,11.0,-7.0,0.0,7.0,0.2,0.0,0.1,-0.88,-0.05,-0.4,0.27,0.0,0.0,0.0
1752780277554,28.0,-45.0,-3.0,-7.0,-0.0,7.0,0.3,0.4,-0.6,-0.9,-0.11,-0.37,0.23,0.0,0.0,0.0
1752780277585,26.0,-45.0,-6.0,-7.0,2.0,6.0,0.6,1.5,-1.6,-0.9,-0.13,-0.37,0.21,0.0,0.0,0.0
1752780277722,25.0,-46.0,-9.0,-7.0,3.0,6.0,-0.1,0.7,-0.6,-0.9,-0.14,-0.37,0.2,0.0,0.0,0.0
1752780277869,19.0,-47.0,-19.0,-7.0,1.0,6.0,0.3,-0.8,0.1,-0.9,-0.19,-0.37,0.15,0.0,0.0,0.0
1752780277909,18.0,-47.0,-21.0,-7.0,3.0,6.0,-0.1,0.0,0.0,-0.89,-0.19,-0.38,0.14,0.0,0.0,0.0
1752780277952,16.0,-47.0,-24.0,-7.0,4.0,6.0,-0.1,1.3,-0.1,-0.89,-0.2,-0.38,0.13,0.0,0.0,0.0
1752780278098,11.0,-48.0,-30.0,-7.0,2.0,6.0,0.6,-2.0,-0.4,-0.89,-0.23,-0.39,0.09,0.0,0.0,0.0
1752780278133,10.0,-48.0,-32.0,-7.0,4.0,6.0,-0.0,1.0,0.3,-0.88,-0.23,-0.4,0.07,0.0,0.0,0.0
1752780278176,8.0,-48.0,-34.0,-7.0,4.0,5.0,-0.0,-0.1,0.1,-0.88,-0.24,-0.41,0.06,0.0,0.0,0.0
1752780278218,6.0,-49.0,-36.0,-7.0,4.0,5.0,0.0,0.6,-0.3,-0.88,-0.24,-0.41,0.05,0.0,0.0,0.0
1752780278258,6.0,-49.0,-37.0,-7.0,3.0,5.0,0.1,-0.6,0.1,-0.87,-0.25,-0.42,0.04,0.0,0.0,0.0
1752780278305,5.0,-50.0,-38.0,-8.0,3.0,5.0,0.2,-1.7,0.1,-0.87,-0.25,-0.43,0.04,0.0,0.0,0.0
1752780278349,3.0,-51.0,-40.0,-8.0,6.0,4.0,0.1,1.9,-1.0,-0.86,-0.24,-0.44,0.02,0.0,0.0,0.0
1752780278385,1.0,-51.0,-41.0,-8.0,4.0,5.0,0.1,-0.6,0.3,-0.86,-0.25,-0.45,0.01,0.0,0.0,0.0
1752780278432,360.0,-52.0,-43.0,-7.0,3.0,4.0,0.4,-1.4,0.0,-0.85,-0.25,-0.46,0.0,0.0,0.0,0.0
1752780278478,357.0,-52.0,-46.0,-7.0,5.0,3.0,0.4,0.8,-0.9,-0.85,-0.25,-0.47,-0.01,0.0,0.0,0.0
1752780278515,356.0,-53.0,-48.0,-8.0,5.0,4.0,0.1,0.1,0.1,-0.84,-0.25,-0.48,-0.03,0.0,0.0,0.0
1752780278561,355.0,-53.0,-51.0,-8.0,4.0,3.0,0.3,-1.4,-0.3,-0.83,-0.26,-0.49,-0.04,0.0,0.0,0.0
1752780278599,353.0,-53.0,-54.0,-8.0,5.0,4.0,-0.1,0.3,1.1,-0.82,-0.26,-0.5,-0.05,0.0,0.0,0.0
1752780278645,351.0,-53.0,-56.0,-8.0,6.0,4.0,0.1,-1.3,0.6,-0.81,-0.27,-0.51,-0.06,0.0,0.0,0.0
1752780278682,350.0,-54.0,-60.0,-8.0,4.0,2.0,0.2,0.1,-0.8,-0.8,-0.27,-0.53,-0.07,0.0,0.0,0.0
1752780278830,341.0,-55.0,-72.0,-8.0,5.0,2.0,0.2,0.0,0.3,-0.76,-0.26,-0.58,-0.12,0.0,0.0,0.0
1752780278866,338.0,-56.0,-75.0,-8.0,5.0,3.0,0.5,-1.1,1.7,-0.74,-0.25,-0.6,-0.14,0.0,0.0,0.0
1752780279016,314.0,-52.0,-95.0,-7.0,7.0,-1.0,1.0,0.7,-0.4,-0.64,-0.19,-0.7,-0.27,0.0,0.0,0.0
1752780279050,307.0,-50.0,-100.0,-6.0,7.0,-3.0,0.8,1.2,-1.9,-0.6,-0.17,-0.73,-0.3,0.0,0.0,0.0
1752780279100,301.0,-48.0,-104.0,-7.0,7.0,-3.0,0.4,0.3,-0.5,-0.57,-0.15,-0.75,-0.32,0.0,0.0,0.0
1752780279233,287.0,-46.0,-114.0,-6.0,6.0,-2.0,0.6,0.1,0.8,-0.48,-0.08,-0.8,-0.35,0.0,0.0,0.0
1752780279274,285.0,-46.0,-118.0,-6.0,6.0,-5.0,0.9,-0.0,-1.7,-0.47,-0.05,-0.81,-0.35,0.0,0.0,0.0
1752780279418,288.0,-49.0,-132.0,-7.0,6.0,-5.0,0.3,1.5,-0.4,-0.44,-0.03,-0.82,-0.35,0.0,0.0,0.0
1752780279565,311.0,-58.0,-156.0,-8.0,0.0,-5.0,0.7,-1.3,-0.6,-0.46,0.15,-0.85,-0.21,0.0,0.0,0.0
1752780279603,318.0,-60.0,-165.0,-8.0,1.0,-5.0,0.7,0.5,-0.5,-0.47,0.18,-0.84,-0.18,0.0,0.0,0.0
1752780279652,327.0,-61.0,-174.0,-8.0,-0.0,-5.0,1.0,-0.8,-0.2,-0.49,0.2,-0.84,-0.15,0.0,0.0,0.0
1752780279682,335.0,-63.0,175.0,-8.0,-1.0,-4.0,0.6,-0.6,0.5,-0.51,0.22,-0.82,-0.11,0.0,0.0,0.0
1752780279735,342.0,-63.0,163.0,-8.0,-1.0,-4.0,0.7,0.3,-0.1,-0.52,0.25,-0.81,-0.09,0.0,0.0,0.0
1752780279769,348.0,-63.0,155.0,-8.0,-2.0,-4.0,0.8,-1.3,-0.4,-0.54,0.26,-0.8,-0.06,0.0,0.0,0.0
1752780279819,358.0,-62.0,139.0,-8.0,-5.0,-2.0,0.2,-1.9,1.2,-0.57,0.29,-0.77,-0.01,0.0,0.0,0.0
1752780279959,18.0,-57.0,108.0,-8.0,-7.0,-0.0,0.7,0.8,0.4,-0.58,0.3,-0.75,0.01,0.0,0.0,0.0
1752780279989,22.0,-55.0,100.0,-7.0,-3.0,-1.0,0.5,3.0,-1.0,-0.66,0.3,-0.68,0.13,0.0,0.0,0.0
1752780280029,28.0,-52.0,90.0,-7.0,-7.0,1.0,0.7,-2.1,0.4,-0.69,0.29,-0.64,0.17,0.0,0.0,0.0
1752780280083,35.0,-46.0,79.0,-7.0,-6.0,2.0,0.4,1.1,0.6,-0.71,0.3,-0.6,0.21,0.0,0.0,0.0
1752780280122,37.0,-43.0,73.0,-5.0,-8.0,3.0,1.0,-0.9,0.8,-0.74,0.28,-0.56,0.25,0.0,0.0,0.0
1752780280155,42.0,-38.0,67.0,-5.0,-10.0,5.0,0.9,-2.3,0.8,-0.76,0.28,-0.52,0.29,0.0,0.0,0.0
1752780280192,46.0,-35.0,62.0,-4.0,-8.0,5.0,1.5,-2.0,1.3,-0.77,0.26,-0.48,0.32,0.0,0.0,0.0
1752780280237,48.0,-32.0,53.0,-4.0,-11.0,7.0,1.8,-5.4,1.3,-0.79,0.23,-0.44,0.35,0.0,0.0,0.0
1752780280277,50.0,-32.0,38.0,-1.0,-15.0,8.0,4.1,-10.2,0.8,-0.82,0.16,-0.39,0.39,0.0,0.0,0.0
1752780280422,43.0,-36.0,24.0,-0.0,-7.0,11.0,4.9,3.6,1.9,-0.86,0.07,-0.36,0.36,0.0,0.0,0.0
1752780280567,356.0,-46.0,-40.0,-2.0,14.0,3.0,3.8,6.9,2.8,-0.87,-0.24,-0.42,-0.03,0.0,0.0,0.0
1752780280616,316.0,-39.0,-94.0,-1.0,6.0,3.0,3.4,-2.5,3.9,-0.64,-0.35,-0.63,-0.26,0.0,0.0,0.0
1752780280650,310.0,-38.0,-115.0,-1.0,1.0,-2.0,5.0,-4.3,1.3,-0.52,-0.33,-0.74,-0.24,0.0,0.0,0.0
1752780280684,288.0,-27.0,-133.0,2.0,9.0,-5.0,6.3,2.2,0.9,-0.39,-0.3,-0.83,-0.26,0.0,0.0,0.0
1752780280733,27.0,-15.0,-140.0,6.0,9.0,-12.0,7.0,2.4,-6.1,-0.26,-0.24,-0.89,-0.28,0.0,0.0,0.0
1752780280885,12.0,2.0,-162.0,-0.0,0.0,-11.0,-0.7,-3.0,-1.3,-0.0,-0.1,-0.98,-0.16,0.0,0.0,0.0
1752780280919,12.0,2.0,-161.0,-1.0,2.0,-9.0,-1.3,-1.3,-0.0,0.0,-0.1,-0.98,-0.16,0.0,0.0,0.0
1752780280959,14.0,2.0,-163.0,-1.0,2.0,-7.0,-1.6,1.2,1.8,-0.0,-0.12,-0.98,-0.15,0.0,0.0,0.0
1752780280994,16.0,2.0,-161.0,0.0,2.0,-10.0,0.5,-3.0,-1.2,-0.0,-0.14,-0.98,-0.16,0.0,0.0,0.0
1752780281036,18.0,4.0,-161.0,1.0,3.0,-8.0,0.3,0.4,0.8,0.01,-0.15,-0.97,-0.17,0.0,0.0,0.0
1752780281086,21.0,6.0,-160.0,6.0,1.0,-17.0,4.9,-2.1,-7.8,0.02,-0.18,-0.97,-0.18,0.0,0.0,0.0
1752780281119,24.0,5.0,-157.0,14.0,7.0,-22.0,13.4,2.7,-13.1,0.01,-0.2,-0.96,-0.2,0.0,0.0,0.0
1752780281160,31.0,-5.0,-152.0,15.0,11.0,-15.0,18.1,5.0,-1.0,-0.11,-0.26,-0.93,-0.22,0.0,0.0,0.0
1752780281200,301.0,-30.0,-142.0,13.0,10.0,-1.0,17.1,6.0,4.7,-0.35,-0.26,-0.88,-0.2,0.0,0.0,0.0
1752780281236,340.0,-56.0,-126.0,10.0,7.0,0.0,19.4,0.5,2.5,-0.57,-0.26,-0.77,-0.1,0.0,0.0,0.0
1752780281282,14.0,-72.0,-41.0,11.0,-5.0,6.0,19.6,-6.5,2.5,-0.74,-0.21,-0.63,0.05,0.0,0.0,0.0
1752780281319,25.0,-52.0,-11.0,8.0,-1.0,22.0,13.9,-2.0,13.9,-0.87,-0.16,-0.42,0.19,0.0,0.0,0.0
1752780281366,33.0,-18.0,-2.0,7.0,-4.0,27.0,8.6,-4.6,13.9,-0.95,-0.06,-0.14,0.28,0.0,0.0,0.0
1752780281401,43.0,3.0,10.0,5.0,-8.0,19.0,6.3,-4.2,3.7,-0.93,0.09,-0.0,0.36,0.0,0.0,0.0
1752780281436,48.0,7.0,14.0,5.0,-3.0,9.0,4.5,-0.4,-0.0,-0.9,0.13,0.0,0.41,0.0,0.0,0.0
1752780281685,39.0,-5.0,10.0,3.0,8.0,3.0,10.5,6.8,-2.7,-0.94,0.08,-0.05,0.34,0.0,0.0,0.0
1752780281829,354.0,-66.0,-46.0,7.0,7.0,-15.0,10.9,1.5,-12.3,-0.83,-0.14,-0.54,-0.01,0.0,0.0,0.0
1752780281872,24.0,-14.0,-144.0,3.0,8.0,-17.0,5.2,2.1,-8.9,-0.19,-0.19,-0.92,-0.27,0.0,0.0,0.0
1752780281930,25.0,-8.0,-145.0,2.0,10.0,-13.0,2.4,3.8,-3.7,-0.14,-0.2,-0.93,-0.28,0.0,0.0,0.0
1752780282060,27.0,-20.0,-150.0,-2.0,5.0,-4.0,0.4,0.6,3.9,-0.23,-0.22,-0.93,-0.2,0.0,0.0,0.0
1752780282099,28.0,-25.0,-150.0,0.0,5.0,-13.0,7.1,2.6,-9.6,-0.27,-0.22,-0.92,-0.18,0.0,0.0,0.0
1752780282148,303.0,-32.0,-146.0,6.0,12.0,-13.0,12.1,7.6,-7.3,-0.34,-0.21,-0.9,-0.18,0.0,0.0,0.0
1752780282182,349.0,-59.0,-144.0,6.0,2.0,-2.0,15.3,-1.1,0.7,-0.49,-0.21,-0.84,-0.09,0.0,0.0,0.0
1752780282220,6.0,-77.0,-117.0,11.0,3.0,0.0,20.9,1.5,-1.4,-0.67,-0.19,-0.72,0.03,0.0,0.0,0.0
1752780282263,18.0,-63.0,-16.0,19.0,5.0,10.0,26.6,3.8,6.9,-0.84,-0.15,-0.51,0.13,0.0,0.0,0.0
1752780282303,33.0,-18.0,0.0,22.0,-2.0,33.0,21.7,-4.5,29.3,-0.95,-0.04,-0.15,0.28,0.0,0.0,0.0
1752780282439,52.0,9.0,21.0,3.0,-2.0,11.0,1.7,1.3,1.7,-0.87,0.12,0.1,0.47,0.0,0.0,0.0
1752780282493,49.0,6.0,21.0,4.0,-1.0,9.0,3.0,2.6,-0.2,-0.89,0.19,-0.02,0.41,0.0,0.0,0.0
1752780282627,49.0,4.0,21.0,3.0,-5.0,13.0,4.7,-1.5,3.6,-0.89,0.18,-0.04,0.41,0.0,0.0,0.0
1752780282662,46.0,-15.0,21.0,3.0,-8.0,11.0,7.2,-4.2,1.3,-0.9,0.11,-0.19,0.38,0.0,0.0,0.0
1752780282712,41.0,-27.0,19.0,4.0,-7.0,12.0,9.7,-0.9,4.4,-0.9,0.06,-0.28,0.34,0.0,0.0,0.0
1752780282742,28.0,-44.0,11.0,0.0,3.0,9.0,7.3,2.9,0.5,-0.9,-0.02,-0.38,0.23,0.0,0.0,0.0
1752780282793,7.0,-68.0,-33.0,0.0,5.0,2.0,10.2,2.7,0.3,-0.84,-0.13,-0.53,0.08,0.0,0.0,0.0
1752780282930,347.0,-63.0,-104.0,5.0,4.0,-16.0,6.6,-0.7,-8.1,-0.71,-0.23,-0.67,-0.05,0.0,0.0,0.0
1752780283285,36.0,-5.0,-150.0,11.0,5.0,0.0,3.3,-26.3,23.8,-0.12,-0.3,-0.92,-0.23,0.0,0.0,0.0
1752780283319,75.0,12.0,26.0,10.0,-8.0,7.0,8.0,1.5,-3.4,-0.78,0.23,-0.02,0.59,0.0,0.0,0.0
1752780283367,65.0,-3.0,40.0,3.0,1.0,3.0,2.7,8.1,-3.1,-0.79,0.28,-0.21,0.5,0.0,0.0,0.0
1752780283404,59.0,-5.0,41.0,0.0,-5.0,10.0,0.9,-0.1,2.9,-0.81,0.28,-0.21,0.46,0.0,0.0,0.0
1752780283445,63.0,-0.0,41.0,3.0,-9.0,7.0,2.6,-2.3,0.0,-0.8,0.3,-0.18,0.48,0.0,0.0,0.0
1752780283489,63.0,-1.0,41.0,1.0,-7.0,8.0,1.5,-0.6,0.5,-0.8,0.3,-0.19,0.49,0.0,0.0,0.0
1752780283524,61.0,-3.0,42.0,1.0,-7.0,8.0,2.1,-0.3,1.1,-0.8,0.29,-0.2,0.48,0.0,0.0,0.0
1752780283574,60.0,-5.0,41.0,2.0,-8.0,11.0,3.4,-2.8,3.8,-0.81,0.28,-0.21,0.47,0.0,0.0,0.0
1752780283608,60.0,-8.0,38.0,4.0,-14.0,11.0,5.9,-9.4,3.3,-0.82,0.24,-0.23,0.47,0.0,0.0,0.0
1752780283649,55.0,-22.0,34.0,2.0,-4.0,7.0,5.8,0.9,-0.4,-0.83,0.17,-0.28,0.46,0.0,0.0,0.0
1752780283690,44.0,-38.0,29.0,-1.0,-2.0,6.0,5.8,1.4,-0.9,-0.85,0.09,-0.37,0.37,0.0,0.0,0.0
1752780283726,37.0,-52.0,20.0,-3.0,2.0,3.0,5.4,2.8,-1.4,-0.84,-0.03,-0.46,0.28,0.0,0.0,0.0
1752780283776,21.0,-72.0,-21.0,-4.0,4.0,1.0,5.0,2.4,-0.9,-0.8,-0.14,-0.55,0.17,0.0,0.0,0.0
1752780284014,309.0,-27.0,-135.0,3.0,14.0,-12.0,6.7,6.9,-5.5,-0.39,-0.43,-0.79,-0.19,0.0,0.0,0.0
1752780284053,309.0,-27.0,-136.0,4.0,8.0,-11.0,10.7,-0.2,-3.8,-0.38,-0.43,-0.8,-0.18,0.0,0.0,0.0
1752780284198,51.0,-30.0,35.0,26.0,-12.0,23.0,29.1,-6.3,15.8,-0.49,-0.33,-0.8,-0.08,0.0,0.0,0.0
1752780284238,79.0,19.0,37.0,13.0,-31.0,21.0,8.6,-25.8,14.2,-0.76,0.32,-0.11,0.56,0.0,0.0,0.0
1752780284275,85.0,25.0,40.0,10.0,-5.0,7.0,6.8,1.7,0.4,-0.68,0.39,-0.04,0.62,0.0,0.0,0.0
1752780284316,76.0,14.0,50.0,5.0,-2.0,4.0,2.3,4.5,-2.1,-0.71,0.41,-0.15,0.55,0.0,0.0,0.0
1752780284356,74.0,11.0,52.0,4.0,-8.0,6.0,2.0,-2.3,0.9,-0.72,0.41,-0.17,0.54,0.0,0.0,0.0
1752780284394,75.0,11.0,51.0,4.0,-10.0,6.0,2.2,-1.8,-0.3,-0.72,0.4,-0.17,0.55,0.0,0.0,0.0
1752780284440,72.0,7.0,51.0,3.0,-6.0,6.0,1.4,1.2,-0.6,-0.73,0.39,-0.19,0.53,0.0,0.0,0.0
1752780284484,70.0,5.0,51.0,2.0,-6.0,8.0,1.4,-0.1,1.8,-0.74,0.38,-0.2,0.52,0.0,0.0,0.0
1752780284527,68.0,2.0,49.0,3.0,-10.0,8.0,3.1,-3.8,1.4,-0.75,0.36,-0.21,0.51,0.0,0.0,0.0
1752780284574,66.0,-4.0,47.0,3.0,-10.0,7.0,4.5,-2.8,0.8,-0.77,0.31,-0.25,0.5,0.0,0.0,0.0
1752780284611,61.0,-13.0,43.0,3.0,-11.0,10.0,6.3,-5.0,2.8,-0.8,0.25,-0.29,0.47,0.0,0.0,0.0
1752780284651,55.0,-27.0,38.0,4.0,-8.0,8.0,9.9,-3.6,1.2,-0.82,0.15,-0.36,0.43,0.0,0.0,0.0
1752780284694,43.0,-55.0,23.0,2.0,-0.0,2.0,10.4,1.0,-2.0,-0.82,-0.01,-0.46,0.35,0.0,0.0,0.0
1752780284728,31.0,-75.0,-4.0,2.0,4.0,-0.0,11.3,1.5,-0.7,-0.77,-0.17,-0.58,0.21,0.0,0.0,0.0
1752780284775,354.0,-53.0,-124.0,6.0,9.0,-7.0,13.3,3.3,-2.4,-0.63,-0.36,-0.69,0.02,0.0,0.0,0.0
1752780284909,284.0,-11.0,-134.0,-1.0,7.0,-4.0,1.2,-0.0,2.3,-0.42,-0.46,-0.76,-0.18,0.0,0.0,0.0
1752780284947,299.0,-16.0,-135.0,-1.0,6.0,-6.0,1.6,-0.3,1.0,-0.34,-0.55,-0.73,-0.21,0.0,0.0,0.0
1752780284987,302.0,-18.0,-133.0,1.0,10.0,-8.0,3.9,3.4,-1.7,-0.36,-0.55,-0.72,-0.2,0.0,0.0,0.0
1752780285032,307.0,-21.0,-131.0,3.0,14.0,-9.0,7.0,7.2,-3.0,-0.4,-0.54,-0.72,-0.2,0.0,0.0,0.0
1752780285107,352.0,-51.0,-129.0,5.0,5.0,-2.0,14.2,1.1,1.4,-0.55,-0.39,-0.74,-0.04,0.0,0.0,0.0
1752780285151,22.0,-81.0,-121.0,8.0,2.0,3.0,17.3,2.6,3.0,-0.66,-0.24,-0.7,0.13,0.0,0.0,0.0
1752780285199,60.0,-45.0,64.0,26.0,-7.0,7.0,31.0,0.4,2.9,-0.72,0.03,-0.61,0.33,0.0,0.0,0.0
1752780285232,94.0,-3.0,58.0,18.0,-39.0,22.0,15.4,-31.7,16.3,-0.59,0.31,-0.38,0.64,0.0,0.0,0.0
1752780285270,98.0,23.0,50.0,11.0,-9.0,13.0,7.2,2.2,6.2,-0.58,0.43,-0.16,0.67,0.0,0.0,0.0
1752780285320,76.0,7.0,62.0,2.0,-1.0,7.0,0.8,8.0,1.4,-0.68,0.45,-0.25,0.53,0.0,0.0,0.0
1752780285346,69.0,-2.0,62.0,1.0,-6.0,4.0,1.8,1.2,-1.4,-0.71,0.41,-0.31,0.49,0.0,0.0,0.0
1752780285489,69.0,-15.0,52.0,2.0,-12.0,8.0,5.5,-5.2,2.0,-0.73,0.29,-0.35,0.5,0.0,0.0,0.0
1752780285639,35.0,-85.0,-5.0,-2.0,3.0,-1.0,6.6,-0.4,-0.1,-0.75,0.19,-0.4,0.49,0.0,0.0,0.0
1752780285684,18.0,-61.0,-134.0,2.0,4.0,-7.0,9.8,-0.2,-2.2,-0.57,-0.41,-0.71,0.09,0.0,0.0,0.0
1752780285718,341.0,-36.0,-136.0,6.0,7.0,-10.0,8.9,1.8,-4.1,-0.45,-0.51,-0.73,-0.07,0.0,0.0,0.0
1752780285770,81.0,-10.0,-136.0,5.0,12.0,-12.0,4.5,5.2,-4.9,-0.31,-0.6,-0.7,-0.22,0.0,0.0,0.0
1752780285803,93.0,6.0,-141.0,4.0,10.0,-10.0,2.8,4.0,-2.0,-0.21,-0.67,-0.65,-0.27,0.0,0.0,0.0
1752780285848,94.0,7.0,-143.0,3.0,7.0,-8.0,1.8,0.8,-0.5,-0.19,-0.69,-0.64,-0.27,0.0,0.0,0.0
1752780285888,93.0,4.0,-143.0,2.0,5.0,-6.0,1.4,-1.0,1.8,-0.2,-0.69,-0.65,-0.25,0.0,0.0,0.0
1752780285948,91.0,1.0,-144.0,5.0,9.0,-10.0,4.8,3.6,-3.0,-0.21,-0.68,-0.66,-0.22,0.0,0.0,0.0
1752780285985,89.0,-3.0,-140.0,3.0,9.0,-8.0,4.8,1.8,-0.1,-0.25,-0.66,-0.67,-0.22,0.0,0.0,0.0
1752780286130,81.0,-15.0,-141.0,4.0,5.0,-9.0,17.2,-2.1,-0.3,-0.3,-0.62,-0.7,-0.17,0.0,0.0,0.0
1752780286173,38.0,-84.0,6.0,14.0,-5.0,4.0,25.8,-7.9,7.3,-0.68,-0.15,-0.68,0.23,0.0,0.0,0.0
1752780286211,69.0,-28.0,37.0,11.0,-19.0,22.0,14.4,-13.9,14.3,-0.75,0.05,-0.45,0.48,0.0,0.0,0.0
1752780286262,65.0,3.0,34.0,2.0,-3.0,19.0,1.3,2.7,10.8,-0.8,0.21,-0.17,0.53,0.0,0.0,0.0
1752780286295,62.0,11.0,43.0,8.0,-9.0,10.0,5.9,-2.2,2.8,-0.8,0.35,-0.1,0.47,0.0,0.0,0.0
1752780286342,69.0,15.0,43.0,6.0,-14.0,11.0,2.4,-4.1,3.5,-0.76,0.37,-0.08,0.52,0.0,0.0,0.0
1752780286378,68.0,15.0,45.0,3.0,-2.0,8.0,1.2,6.1,0.4,-0.76,0.38,-0.08,0.52,0.0,0.0,0.0
1752780286427,65.0,9.0,49.0,3.0,-0.0,4.0,1.9,5.7,-2.9,-0.77,0.39,-0.14,0.49,0.0,0.0,0.0
1752780286558,79.0,18.0,53.0,6.0,-4.0,4.0,2.5,-0.5,-0.4,-0.74,0.4,-0.14,0.53,0.0,0.0,0.0
1752780286606,83.0,26.0,49.0,7.0,-12.0,8.0,-0.7,-5.8,3.2,-0.67,0.45,-0.07,0.59,0.0,0.0,0.0
1752780286742,82.0,17.0,54.0,3.0,-7.0,8.0,0.3,0.3,1.9,-0.66,0.45,-0.16,0.58,0.0,0.0,0.0
1752780286783,84.0,16.0,52.0,4.0,-9.0,8.0,1.3,-1.9,2.1,-0.66,0.42,-0.17,0.6,0.0,0.0,0.0
1752780286831,87.0,14.0,51.0,4.0,-7.0,6.0,1.5,-1.2,1.7,-0.65,0.4,-0.2,0.62,0.0,0.0,0.0
1752780286866,91.0,13.0,56.0,3.0,-13.0,6.0,2.8,-2.5,-1.8,-0.62,0.41,-0.24,0.63,0.0,0.0,0.0
1752780286902,91.0,10.0,65.0,4.0,-11.0,-1.0,-2.1,0.5,2.2,-0.59,0.44,-0.3,0.6,0.0,0.0,0.0
1752780286951,80.0,9.0,71.0,-1.0,-10.0,6.0,-2.0,-1.3,2.7,-0.62,0.5,-0.3,0.53,0.0,0.0,0.0
1752780286985,84.0,7.0,70.0,1.0,-10.0,3.0,-0.2,-1.4,-0.9,-0.61,0.48,-0.32,0.55,0.0,0.0,0.0
1752780287026,90.0,6.0,68.0,7.0,-10.0,3.0,8.7,-1.5,-2.3,-0.58,0.44,-0.35,0.58,0.0,0.0,0.0
1752780287065,98.0,1.0,67.0,7.0,-8.0,7.0,6.7,2.4,2.8,-0.55,0.37,-0.41,0.63,0.0,0.0,0.0
1752780287102,102.0,-8.0,64.0,2.0,-5.0,5.0,5.7,3.5,1.5,-0.53,0.26,-0.46,0.66,0.0,0.0,0.0
1752780287153,112.0,-16.0,68.0,3.0,-8.0,5.0,5.7,0.9,1.9,-0.48,0.18,-0.53,0.68,0.0,0.0,0.0
1752780287203,116.0,-20.0,77.0,2.0,-5.0,7.0,8.6,5.1,4.3,-0.41,0.12,-0.62,0.66,0.0,0.0,0.0
1752780287236,113.0,-39.0,113.0,2.0,3.0,-6.0,6.2,10.1,-1.3,-0.34,-0.06,-0.77,0.54,0.0,0.0,0.0
1752780287277,95.0,-44.0,145.0,-5.0,3.0,-6.0,1.1,5.5,0.2,-0.31,-0.25,-0.85,0.34,0.0,0.0,0.0
1752780287320,41.0,-37.0,166.0,-5.0,5.0,-10.0,1.2,7.5,-4.2,-0.27,-0.33,-0.88,0.21,0.0,0.0,0.0
1752780287351,46.0,-26.0,180.0,-2.0,5.0,-13.0,2.8,5.5,-1.0,-0.21,-0.38,-0.9,0.09,0.0,0.0,0.0
1752780287394,47.0,-14.0,-174.0,-0.0,6.0,-14.0,1.8,5.1,-4.4,-0.16,-0.39,-0.91,0.01,0.0,0.0,0.0
1752780287436,44.0,-6.0,-179.0,1.0,2.0,-13.0,2.0,2.3,-3.4,-0.05,-0.37,-0.93,0.01,0.0,0.0,0.0
1752780287483,38.0,-2.0,178.0,2.0,-2.0,-13.0,2.1,-0.6,-2.0,-0.01,-0.32,-0.95,0.02,0.0,0.0,0.0
1752780287511,32.0,0.0,173.0,0.0,0.0,-10.0,1.8,-0.3,-1.2,0.02,-0.28,-0.96,0.06,0.0,0.0,0.0
1752780287554,24.0,3.0,162.0,1.0,-3.0,-9.0,-0.0,0.7,0.2,0.05,-0.22,-0.97,0.12,0.0,0.0,0.0
1752780287600,19.0,3.0,155.0,1.0,-3.0,-9.0,0.5,1.4,-0.2,0.06,-0.17,-0.96,0.2,0.0,0.0,0.0
1752780287637,14.0,3.0,148.0,2.0,-5.0,-7.0,1.5,0.4,0.9,0.06,-0.12,-0.95,0.27,0.0,0.0,0.0
1752780288000,140.0,8.0,118.0,3.0,-10.0,-3.0,1.6,-0.8,2.0,-0.17,0.41,-0.75,0.48,0.0,0.0,0.0
1752780288145,134.0,8.0,116.0,2.0,-11.0,-2.0,1.2,-2.0,1.8,-0.2,0.45,-0.72,0.49,0.0,0.0,0.0
1752780288194,122.0,5.0,114.0,2.0,-11.0,-2.0,1.4,-1.7,2.0,-0.26,0.47,-0.69,0.48,0.0,0.0,0.0
1752780288232,118.0,1.0,115.0,2.0,-11.0,-1.0,1.4,-1.3,1.9,-0.28,0.46,-0.7,0.47,0.0,0.0,0.0
1752780288283,114.0,-3.0,118.0,0.0,-9.0,-5.0,1.1,0.6,-0.9,-0.28,0.43,-0.74,0.43,0.0,0.0,0.0
1752780288323,109.0,-8.0,120.0,-1.0,-7.0,-3.0,-0.4,1.0,2.3,-0.3,0.38,-0.77,0.41,0.0,0.0,0.0
1752780288365,102.0,-13.0,122.0,-2.0,-7.0,-4.0,0.4,1.5,0.0,-0.31,0.34,-0.8,0.38,0.0,0.0,0.0
1752780288507,91.0,-22.0,137.0,-4.0,-6.0,-6.0,0.0,0.4,1.0,-0.28,0.22,-0.88,0.29,0.0,0.0,0.0
1752780288549,88.0,-24.0,140.0,-3.0,-6.0,-7.0,0.5,-0.8,0.0,-0.28,0.19,-0.9,0.27,0.0,0.0,0.0
1752780288592,341.0,-24.0,145.0,-4.0,-4.0,-8.0,0.3,0.4,-0.9,-0.26,0.16,-0.92,0.24,0.0,0.0,0.0
1752780288626,345.0,-26.0,151.0,-4.0,-4.0,-7.0,0.2,-0.9,1.2,-0.26,0.12,-0.94,0.2,0.0,0.0,0.0
1752780288667,349.0,-27.0,156.0,-4.0,-5.0,-7.0,0.8,-1.8,1.0,-0.26,0.09,-0.95,0.17,0.0,0.0,0.0
1752780288706,354.0,-28.0,166.0,-3.0,-2.0,-9.0,1.2,-0.5,-0.6,-0.25,0.06,-0.96,0.12,0.0,0.0,0.0
1752780288760,359.0,-29.0,175.0,-4.0,-1.0,-7.0,0.6,-1.1,2.2,-0.25,0.02,-0.97,0.05,0.0,0.0,0.0
1752780288908,5.0,-29.0,-171.0,-4.0,5.0,-7.0,-0.1,0.2,0.4,-0.25,-0.03,-0.97,-0.04,0.0,0.0,0.0
1752780288941,20.0,-21.0,-143.0,-3.0,6.0,-9.0,0.3,0.3,-1.5,-0.24,-0.16,-0.92,-0.26,0.0,0.0,0.0
1752780288978,255.0,-18.0,-137.0,-3.0,8.0,-7.0,-0.8,1.5,-0.4,-0.24,-0.19,-0.9,-0.31,0.0,0.0,0.0
1752780289019,251.0,-17.0,-133.0,-3.0,8.0,-7.0,0.8,-2.8,-2.8,-0.24,-0.21,-0.88,-0.34,0.0,0.0,0.0
1752780289059,250.0,-16.0,-129.0,-2.0,6.0,-8.0,0.1,-0.2,-1.6,-0.26,-0.23,-0.86,-0.37,0.0,0.0,0.0
1752780289104,256.0,-16.0,-122.0,-2.0,9.0,-6.0,0.6,1.4,-0.7,-0.3,-0.28,-0.83,-0.39,0.0,0.0,0.0
1752780289144,262.0,-17.0,-120.0,-3.0,8.0,-4.0,0.1,-0.7,0.7,-0.34,-0.32,-0.8,-0.39,0.0,0.0,0.0
1752780289188,271.0,-19.0,-114.0,-2.0,9.0,-6.0,1.2,-1.0,0.1,-0.38,-0.34,-0.77,-0.39,0.0,0.0,0.0
1752780289229,283.0,-22.0,-112.0,-4.0,9.0,-5.0,-0.2,0.3,-1.2,-0.44,-0.37,-0.73,-0.36,0.0,0.0,0.0
1752780289263,298.0,-25.0,-112.0,-4.0,10.0,-5.0,0.7,1.4,-1.9,-0.48,-0.42,-0.7,-0.32,0.0,0.0,0.0
1752780289308,320.0,-33.0,-107.0,-4.0,9.0,0.0,1.6,0.8,1.6,-0.56,-0.45,-0.65,-0.24,0.0,0.0,0.0
1752780289348,336.0,-41.0,-103.0,-4.0,6.0,1.0,1.8,-0.1,2.6,-0.62,-0.46,-0.62,-0.15,0.0,0.0,0.0
1752780289489,348.0,-46.0,-99.0,-8.0,6.0,2.0,0.4,0.5,1.6,-0.67,-0.45,-0.59,-0.07,0.0,0.0,0.0
1752780289531,10.0,-56.0,-83.0,-8.0,4.0,2.0,1.1,-1.5,0.5,-0.73,-0.43,-0.53,0.06,0.0,0.0,0.0
1752780289572,12.0,-57.0,-80.0,-8.0,5.0,2.0,1.1,-0.7,0.3,-0.74,-0.42,-0.52,0.08,0.0,0.0,0.0
1752780289610,14.0,-57.0,-76.0,-7.0,5.0,3.0,1.5,-0.4,2.1,-0.75,-0.42,-0.51,0.09,0.0,0.0,0.0
1752780289756,15.0,-56.0,-73.0,-8.0,6.0,2.0,1.2,-0.1,2.8,-0.76,-0.42,-0.49,0.1,0.0,0.0,0.0
1752780289926,349.0,-48.0,-108.0,-5.0,9.0,-5.0,-0.1,1.9,0.0,-0.64,-0.45,-0.62,-0.04,0.0,0.0,0.0
1752780289949,308.0,-30.0,-125.0,-4.0,8.0,-5.0,1.0,1.2,0.2,-0.45,-0.42,-0.76,-0.22,0.0,0.0,0.0
1752780290086,257.0,-20.0,-134.0,-2.0,6.0,-11.0,0.9,-0.1,-4.2,-0.4,-0.37,-0.81,-0.25,0.0,0.0,0.0
1752780290130,249.0,-18.0,-137.0,-3.0,9.0,-5.0,0.1,1.6,-0.5,-0.22,-0.15,-0.91,-0.32,0.0,0.0,0.0
1752780290170,13.0,-16.0,-142.0,-1.0,5.0,-9.0,0.6,0.3,-0.1,-0.18,-0.11,-0.93,-0.3,0.0,0.0,0.0
1752780290219,8.0,-14.0,-148.0,-1.0,2.0,-10.0,1.0,-3.0,-1.6,-0.15,-0.07,-0.95,-0.27,0.0,0.0,0.0
1752780290253,6.0,-14.0,-151.0,-2.0,3.0,-8.0,0.5,-1.2,0.3,-0.14,-0.05,-0.96,-0.24,0.0,0.0,0.0
1752780290397,5.0,-13.0,-152.0,5.0,2.0,-11.0,8.2,-2.8,-2.9,-0.13,-0.05,-0.96,-0.23,0.0,0.0,0.0
1752780290437,28.0,-20.0,-144.0,0.0,9.0,-8.0,3.6,4.4,0.7,-0.25,-0.23,-0.91,-0.24,0.0,0.0,0.0
1752780290473,298.0,-28.0,-132.0,-3.0,11.0,-4.0,2.6,7.8,0.7,-0.39,-0.35,-0.82,-0.23,0.0,0.0,0.0
1752780290514,325.0,-37.0,-117.0,-4.0,7.0,-2.0,2.0,0.4,1.6,-0.52,-0.43,-0.72,-0.19,0.0,0.0,0.0
1752780290553,344.0,-45.0,-112.0,-6.0,7.0,-1.0,1.0,1.0,1.5,-0.59,-0.45,-0.67,-0.11,0.0,0.0,0.0
1752780290597,354.0,-50.0,-109.0,-6.0,8.0,2.0,1.2,2.1,4.2,-0.63,-0.46,-0.63,-0.03,0.0,0.0,0.0
1752780290631,5.0,-54.0,-103.0,-6.0,7.0,5.0,2.3,2.2,6.7,-0.66,-0.46,-0.6,0.03,0.0,0.0,0.0
1752780290673,11.0,-56.0,-102.0,-5.0,6.0,6.0,3.8,0.6,7.4,-0.66,-0.47,-0.58,0.06,0.0,0.0,0.0
1752780290720,12.0,-56.0,-109.0,-4.0,6.0,6.0,4.4,1.7,6.7,-0.64,-0.48,-0.6,0.06,0.0,0.0,0.0
1752780290757,357.0,-48.0,-120.0,-2.0,10.0,4.0,5.3,3.8,7.7,-0.59,-0.48,-0.64,0.0,0.0,0.0,0.0
1752780290798,342.0,-40.0,-128.0,4.0,12.0,-0.0,8.8,5.9,5.6,-0.51,-0.48,-0.71,-0.08,0.0,0.0,0.0
1752780290839,54.0,-22.0,-140.0,9.0,11.0,-10.0,11.3,3.0,-4.2,-0.32,-0.42,-0.83,-0.19,0.0,0.0,0.0
1752780290874,35.0,-5.0,-145.0,11.0,1.0,-17.0,4.6,-2.2,-6.6,-0.13,-0.29,-0.91,-0.27,0.0,0.0,0.0
1752780290920,23.0,3.0,-141.0,3.0,4.0,-14.0,1.9,-2.7,-6.9,-0.05,-0.2,-0.92,-0.32,0.0,0.0,0.0
1752780290958,16.0,5.0,-140.0,3.0,2.0,-13.0,3.0,-5.0,-5.9,-0.01,-0.14,-0.93,-0.35,0.0,0.0,0.0
1752780291106,42.0,-2.0,-138.0,2.0,12.0,-8.0,3.7,5.8,-1.5,-0.1,-0.3,-0.89,-0.33,0.0,0.0,0.0
1752780291150,273.0,-14.0,-133.0,-1.0,11.0,-3.0,2.1,3.7,3.1,-0.3,-0.43,-0.81,-0.28,0.0,0.0,0.0
1752780291183,312.0,-28.0,-127.0,-2.0,11.0,-2.0,2.6,5.8,5.3,-0.44,-0.47,-0.74,-0.2,0.0,0.0,0.0
1752780291225,339.0,-39.0,-125.0,-2.0,10.0,6.0,5.1,5.0,9.6,-0.52,-0.49,-0.69,-0.1,0.0,0.0,0.0
1752780291273,353.0,-44.0,-130.0,-2.0,4.0,3.0,5.7,-0.8,6.7,-0.52,-0.48,-0.71,-0.03,0.0,0.0,0.0
1752780291307,356.0,-46.0,-135.0,-2.0,8.0,6.0,4.5,3.1,10.9,-0.51,-0.46,-0.72,-0.02,0.0,0.0,0.0
1752780291359,347.0,-40.0,-141.0,1.0,11.0,2.0,6.5,6.7,8.7,-0.45,-0.45,-0.77,-0.05,0.0,0.0,0.0
1752780291589,356.0,8.0,-149.0,3.0,-0.0,-10.0,2.7,-6.8,-2.5,-0.29,-0.41,-0.86,-0.1,0.0,0.0,0.0
1752780291634,356.0,10.0,-153.0,5.0,-4.0,-12.0,3.0,-7.4,-3.3,0.1,0.04,-0.97,-0.23,0.0,0.0,0.0
1752780291674,2.0,10.0,-152.0,7.0,-1.0,-16.0,7.4,-4.7,-7.7,0.09,-0.02,-0.97,-0.24,0.0,0.0,0.0
1752780291724,16.0,8.0,-151.0,10.0,7.0,-12.0,10.0,1.5,-3.5,0.03,-0.14,-0.96,-0.25,0.0,0.0,0.0
1752780291760,47.0,-8.0,-142.0,2.0,11.0,-4.0,4.3,4.5,3.1,-0.14,-0.33,-0.89,-0.27,0.0,0.0,0.0
1752780291807,290.0,-19.0,-133.0,-2.0,13.0,-1.0,2.5,5.7,4.3,-0.34,-0.45,-0.79,-0.24,0.0,0.0,0.0
1752780291843,319.0,-30.0,-125.0,-3.0,10.0,-2.0,5.7,2.4,0.8,-0.47,-0.48,-0.72,-0.18,0.0,0.0,0.0
1752780291873,341.0,-40.0,-121.0,-5.0,8.0,1.0,2.4,3.3,5.1,-0.55,-0.49,-0.68,-0.09,0.0,0.0,0.0
1752780291943,354.0,-46.0,-120.0,-3.0,8.0,-4.0,4.8,2.9,2.1,-0.57,-0.49,-0.66,-0.03,0.0,0.0,0.0
1752780291956,8.0,-55.0,-121.0,-5.0,6.0,3.0,2.9,0.9,5.6,-0.58,-0.47,-0.66,0.03,0.0,0.0,0.0
1752780292100,12.0,-58.0,-121.0,-1.0,10.0,-6.0,4.1,6.8,1.6,-0.6,-0.45,-0.66,0.06,0.0,0.0,0.0
1752780292134,41.0,-26.0,-159.0,4.0,6.0,-8.0,8.0,1.8,0.3,-0.27,-0.34,-0.9,-0.08,0.0,0.0,0.0
1752780292184,27.0,-12.0,-167.0,7.0,-0.0,-13.0,8.3,-3.8,-4.6,-0.13,-0.23,-0.96,-0.09,0.0,0.0,0.0
1752780292314,357.0,2.0,-158.0,3.0,1.0,-12.0,1.2,-2.0,-2.6,0.02,0.03,-0.98,-0.19,0.0,0.0,0.0
1752780292458,347.0,2.0,-170.0,1.0,0.0,-9.0,0.1,-1.4,0.9,0.03,0.11,-0.99,-0.09,0.0,0.0,0.0
1752780292501,347.0,2.0,-172.0,-0.0,1.0,-10.0,-0.5,-0.4,-0.3,0.03,0.12,-0.99,-0.06,0.0,0.0,0.0
1752780292540,345.0,1.0,-174.0,-0.0,0.0,-12.0,-0.3,-0.7,-2.2,0.02,0.13,-0.99,-0.05,0.0,0.0,0.0
1752780292582,344.0,-1.0,-176.0,-1.0,-0.0,-8.0,0.1,-1.7,1.3,-0.0,0.14,-0.99,-0.04,0.0,0.0,0.0
1752780292616,344.0,-3.0,-178.0,0.0,-4.0,-10.0,0.8,-3.3,-0.3,-0.03,0.14,-0.99,-0.02,0.0,0.0,0.0
1752780292658,348.0,-6.0,-180.0,1.0,-5.0,-10.0,1.8,-4.6,-0.4,-0.05,0.12,-0.99,-0.01,0.0,0.0,0.0
1752780292918,285.0,-15.0,-121.0,-3.0,15.0,-2.0,-1.2,6.3,2.4,-0.08,0.06,-0.99,-0.02,0.0,0.0,0.0
1752780292951,301.0,-19.0,-114.0,1.0,11.0,-3.0,4.9,2.8,-0.2,-0.48,-0.53,-0.64,-0.27,0.0,0.0,0.0
1752780292998,316.0,-25.0,-108.0,-3.0,9.0,-2.0,1.0,1.3,1.1,-0.56,-0.53,-0.6,-0.22,0.0,0.0,0.0
1752780293025,331.0,-31.0,-98.0,-5.0,11.0,2.0,0.6,0.5,3.5,-0.64,-0.52,-0.54,-0.17,0.0,0.0,0.0
1752780293167,342.0,-38.0,-90.0,-6.0,2.0,4.0,2.0,-2.1,2.3,-0.7,-0.49,-0.51,-0.11,0.0,0.0,0.0
1752780293314,23.0,-62.0,-44.0,-7.0,2.0,5.0,1.8,-1.1,1.8,-0.81,-0.3,-0.48,0.17,0.0,0.0,0.0
1752780293358,16.0,-62.0,-56.0,-5.0,5.0,5.0,3.3,0.4,3.6,-0.78,-0.32,-0.52,0.11,0.0,0.0,0.0
1752780293393,6.0,-59.0,-83.0,-5.0,7.0,3.0,2.6,1.4,2.8,-0.73,-0.38,-0.57,0.04,0.0,0.0,0.0
1752780293425,351.0,-48.0,-114.0,-3.0,6.0,-5.0,4.2,1.8,-3.1,-0.6,-0.46,-0.65,-0.05,0.0,0.0,0.0
1752780293472,324.0,-35.0,-127.0,-3.0,9.0,-6.0,2.2,2.4,-1.2,-0.49,-0.46,-0.73,-0.14,0.0,0.0,0.0
1752780293518,309.0,-29.0,-131.0,-6.0,10.0,-6.0,-1.3,3.5,-0.6,-0.43,-0.43,-0.77,-0.19,0.0,0.0,0.0
1752780293658,23.0,-26.0,-158.0,-3.0,1.0,-12.0,1.6,-1.9,-4.4,-0.37,-0.39,-0.82,-0.23,0.0,0.0,0.0
1752780293700,17.0,-30.0,-164.0,-7.0,2.0,-8.0,-1.2,0.0,-0.0,-0.28,-0.14,-0.95,-0.09,0.0,0.0,0.0
1752780293738,10.0,-36.0,-169.0,-5.0,1.0,-8.0,-0.6,-1.2,0.3,-0.31,-0.09,-0.94,-0.05,0.0,0.0,0.0
1752780293778,3.0,-40.0,-179.0,-4.0,-1.0,-9.0,2.9,-0.5,-2.2,-0.34,-0.03,-0.94,0.0,0.0,0.0,0.0
1752780293817,356.0,-44.0,172.0,-5.0,-4.0,-5.0,1.2,-3.5,2.3,-0.37,0.03,-0.93,0.04,0.0,0.0,0.0
1752780293864,29.0,-48.0,159.0,-7.0,-3.0,-7.0,0.5,-0.4,-0.7,-0.41,0.06,-0.9,0.1,0.0,0.0,0.0
1752780294006,50.0,-58.0,121.0,-5.0,-10.0,-2.0,3.9,-2.8,-0.9,-0.53,0.05,-0.81,0.24,0.0,0.0,0.0
1752780294049,48.0,-62.0,105.0,-7.0,-3.0,-1.0,2.1,1.1,-0.9,-0.6,0.04,-0.75,0.27,0.0,0.0,0.0
1752780294092,45.0,-64.0,77.0,-9.0,-3.0,4.0,0.6,0.9,1.4,-0.69,0.03,-0.67,0.28,0.0,0.0,0.0
1752780294126,45.0,-61.0,55.0,-7.0,-5.0,3.0,0.3,-0.6,-0.7,-0.74,0.02,-0.6,0.31,0.0,0.0,0.0
1752780294268,22.0,-46.0,-17.0,-4.0,3.0,7.0,0.9,0.0,2.2,-0.78,-0.01,-0.53,0.32,0.0,0.0,0.0
1752780294315,6.0,-35.0,-41.0,-2.0,5.0,8.0,3.8,-1.3,2.0,-0.9,-0.29,-0.31,0.08,0.0,0.0,0.0
1752780294364,353.0,-29.0,-56.0,1.0,10.0,4.0,5.5,2.4,0.1,-0.86,-0.4,-0.31,-0.05,0.0,0.0,0.0
1752780294395,335.0,-20.0,-71.0,-2.0,12.0,4.0,1.0,3.3,2.0,-0.79,-0.5,-0.32,-0.18,0.0,0.0,0.0
1752780294427,318.0,-14.0,-85.0,-1.0,15.0,4.0,1.9,3.5,3.5,-0.68,-0.56,-0.39,-0.27,0.0,0.0,0.0
1752780294474,298.0,-14.0,-108.0,3.0,9.0,-5.0,5.5,0.2,-1.2,-0.54,-0.57,-0.54,-0.3,0.0,0.0,0.0
1752780294518,284.0,-13.0,-124.0,1.0,15.0,-9.0,3.1,7.8,-4.0,-0.41,-0.54,-0.67,-0.3,0.0,0.0,0.0
1752780294564,52.0,-14.0,-153.0,5.0,2.0,-12.0,7.1,-1.5,-3.4,-0.24,-0.45,-0.84,-0.2,0.0,0.0,0.0
1752780294605,38.0,-19.0,-170.0,0.0,-9.0,-9.0,3.8,-8.8,-0.4,-0.18,-0.32,-0.93,-0.03,0.0,0.0,0.0
1752780294643,29.0,-26.0,172.0,-2.0,-7.0,-10.0,1.6,-4.0,-2.8,-0.2,-0.24,-0.94,0.12,0.0,0.0,0.0
1752780294690,24.0,-34.0,162.0,-4.0,-9.0,-13.0,4.0,-7.0,-7.2,-0.26,-0.2,-0.92,0.19,0.0,0.0,0.0
1752780294827,48.0,-40.0,-10.0,3.0,5.0,19.0,8.1,2.8,10.5,-0.35,-0.2,-0.88,0.26,0.0,0.0,0.0
1752780294873,37.0,-16.0,-30.0,-1.0,7.0,19.0,-0.3,2.1,9.5,-0.9,-0.25,-0.1,0.33,0.0,0.0,0.0
1752780295019,302.0,-7.0,-113.0,16.0,11.0,-8.0,16.3,2.6,-2.7,-0.55,-0.67,-0.45,-0.23,0.0,0.0,0.0
1752780295053,256.0,5.0,-130.0,9.0,6.0,-10.0,7.6,0.2,-2.6,-0.26,-0.64,-0.64,-0.33,0.0,0.0,0.0
1752780295094,69.0,12.0,-151.0,8.0,-1.0,-13.0,6.9,-6.8,-5.7,-0.05,-0.54,-0.8,-0.26,0.0,0.0,0.0
1752780295134,49.0,16.0,-165.0,14.0,-10.0,-23.0,8.7,-10.3,-12.4,0.08,-0.41,-0.89,-0.17,0.0,0.0,0.0
1752780295177,51.0,6.0,175.0,6.0,1.0,-10.0,6.4,1.5,0.1,0.1,-0.41,-0.9,-0.02,0.0,0.0,0.0
1752780295221,56.0,-21.0,175.0,-1.0,5.0,-6.0,3.5,5.3,2.6,-0.09,-0.46,-0.88,0.09,0.0,0.0,0.0
1752780295254,53.0,-42.0,171.0,-1.0,1.0,-4.0,6.5,3.3,1.3,-0.3,-0.41,-0.83,0.22,0.0,0.0,0.0
1752780295300,92.0,-65.0,116.0,-1.0,-5.0,1.0,8.3,-0.6,1.4,-0.42,-0.32,-0.75,0.4,0.0,0.0,0.0
1752780295338,100.0,-55.0,52.0,8.0,-3.0,10.0,15.3,1.6,5.1,-0.5,-0.23,-0.58,0.59,0.0,0.0,0.0
1752780295471,72.0,6.0,17.0,0.0,8.0,10.0,-0.7,10.8,0.7,-0.6,-0.09,-0.36,0.71,0.0,0.0,0.0
1752780295521,81.0,3.0,14.0,4.0,-2.0,7.0,4.8,-3.6,-2.4,-0.77,0.12,-0.06,0.62,0.0,0.0,0.0
1752780295567,95.0,4.0,10.0,4.0,-10.0,8.0,2.6,-6.2,-1.5,-0.69,0.09,-0.05,0.72,0.0,0.0,0.0
1752780295602,96.0,6.0,11.0,2.0,0.0,8.0,1.0,2.4,-1.5,-0.67,0.1,-0.03,0.74,0.0,0.0,0.0
1752780295655,90.0,8.0,13.0,2.0,3.0,10.0,0.6,4.1,1.0,-0.7,0.13,-0.02,0.7,0.0,0.0,0.0
1752780295680,90.0,11.0,11.0,2.0,-4.0,10.0,-0.0,-4.0,-0.7,-0.7,0.14,0.0,0.7,0.0,0.0,0.0
1752780295822,92.0,11.0,8.0,4.0,-6.0,14.0,3.7,-5.3,4.9,-0.69,0.12,0.02,0.72,0.0,0.0,0.0
1752780295883,68.0,5.0,-10.0,6.0,1.0,12.0,6.0,-1.5,2.2,-0.81,-0.02,0.1,0.58,0.0,0.0,0.0
1752780295913,55.0,-5.0,-23.0,5.0,2.0,11.0,6.8,-4.0,3.6,-0.87,-0.19,0.05,0.45,0.0,0.0,0.0
1752780295951,38.0,-19.0,-52.0,5.0,3.0,10.0,10.7,-5.5,6.9,-0.84,-0.46,-0.03,0.29,0.0,0.0,0.0
1752780295981,16.0,-23.0,-97.0,13.0,3.0,6.0,16.1,-5.7,10.3,-0.66,-0.72,-0.2,0.09,0.0,0.0,0.0
1752780296022,306.0,-3.0,-135.0,21.0,2.0,3.0,19.8,-4.7,9.8,-0.41,-0.81,-0.41,-0.11,0.0,0.0,0.0
1752780296070,203.0,26.0,-134.0,26.0,2.0,-4.0,18.7,-3.1,-1.2,-0.15,-0.7,-0.6,-0.36,0.0,0.0,0.0
1752780296125,153.0,51.0,-104.0,20.0,3.0,-10.0,12.0,-3.0,-9.1,0.11,-0.49,-0.61,-0.62,0.0,0.0,0.0
1752780296158,140.0,59.0,-90.0,14.0,5.0,-11.0,5.2,1.0,-10.4,0.24,-0.44,-0.55,-0.66,0.0,0.0,0.0
1752780296208,136.0,66.0,-119.0,13.0,6.0,-2.0,2.9,3.3,2.6,0.25,-0.53,-0.53,-0.61,0.0,0.0,0.0
1752780296457,151.0,55.0,-135.0,15.0,5.0,-10.0,7.9,1.2,-4.6,0.14,-0.64,-0.55,-0.53,0.0,0.0,0.0
1752780296483,174.0,41.0,-143.0,16.0,7.0,-8.0,10.9,2.6,-0.6,0.02,-0.71,-0.54,-0.45,0.0,0.0,0.0
1752780296524,112.0,9.0,-146.0,16.0,6.0,-2.0,16.2,0.9,6.0,-0.15,-0.78,-0.54,-0.28,0.0,0.0,0.0
1752780296574,9.0,-27.0,-139.0,15.0,8.0,3.0,20.4,2.7,8.9,-0.35,-0.78,-0.52,-0.04,0.0,0.0,0.0
1752780296707,54.0,-57.0,-129.0,29.0,-6.0,7.0,25.3,2.6,4.3,-0.51,-0.66,-0.48,0.26,0.0,0.0,0.0
1752780296748,211.0,40.0,72.0,25.0,-15.0,0.0,15.4,-12.1,-4.4,0.21,0.27,-0.56,0.76,0.0,0.0,0.0
1752780296783,251.0,57.0,55.0,18.0,-17.0,-6.0,8.4,-10.3,-8.5,0.47,0.26,-0.52,0.66,0.0,0.0,0.0
1752780296824,249.0,50.0,67.0,15.0,-7.0,-3.0,7.0,1.3,-3.8,0.45,0.19,-0.58,0.65,0.0,0.0,0.0
1752780296974,180.0,15.0,92.0,2.0,-8.0,3.0,-0.9,0.5,3.2,-0.0,0.18,-0.7,0.69,0.0,0.0,0.0
1752780297021,187.0,22.0,90.0,4.0,-11.0,1.0,0.5,-2.0,0.8,0.03,0.22,-0.68,0.7,0.0,0.0,0.0
1752780297057,193.0,24.0,90.0,7.0,-12.0,-1.0,2.9,-2.6,-1.2,0.08,0.21,-0.67,0.71,0.0,0.0,0.0
1752780297105,197.0,24.0,89.0,5.0,-14.0,-2.0,4.1,-3.9,-2.6,0.1,0.19,-0.68,0.71,0.0,0.0,0.0
1752780297141,192.0,18.0,87.0,10.0,-13.0,-1.0,5.7,-3.6,0.1,0.07,0.15,-0.67,0.72,0.0,0.0,0.0
1752780297175,164.0,-1.0,92.0,2.0,-7.0,3.0,2.9,2.8,3.5,-0.05,0.1,-0.7,0.7,0.0,0.0,0.0
1752780297222,136.0,-24.0,93.0,-2.0,-4.0,2.0,3.5,4.4,2.7,-0.22,0.0,-0.72,0.65,0.0,0.0,0.0
1752780297266,117.0,-45.0,100.0,-6.0,-1.0,-0.0,1.6,4.3,1.4,-0.33,-0.14,-0.73,0.59,0.0,0.0,0.0
1752780297309,106.0,-58.0,120.0,-6.0,0.0,-4.0,2.2,3.8,0.1,-0.36,-0.33,-0.72,0.48,0.0,0.0,0.0
1752780297350,96.0,-57.0,153.0,-5.0,2.0,-5.0,1.8,4.0,-0.2,-0.34,-0.44,-0.74,0.38,0.0,0.0,0.0
1752780297391,89.0,-47.0,170.0,-7.0,3.0,-9.0,0.5,3.8,-1.6,-0.29,-0.53,-0.74,0.28,0.0,0.0,0.0
1752780297428,73.0,-33.0,171.0,-3.0,2.0,-10.0,2.2,3.9,-1.6,-0.21,-0.57,-0.76,0.23,0.0,0.0,0.0
1752780297474,69.0,-23.0,164.0,-4.0,-9.0,-6.0,4.4,-7.3,3.5,-0.12,-0.56,-0.79,0.22,0.0,0.0,0.0
1752780297622,61.0,-15.0,155.0,0.0,2.0,-10.0,-0.9,5.8,-0.6,-0.02,-0.49,-0.83,0.26,0.0,0.0,0.0
1752780297666,69.0,12.0,155.0,11.0,1.0,-7.0,6.8,2.2,0.8,0.21,-0.55,-0.8,0.11,0.0,0.0,0.0
1752780297816,269.0,31.0,127.0,4.0,-5.0,-3.0,-1.0,3.1,1.1,0.35,-0.11,-0.86,0.35,0.0,0.0,0.0
1752780297861,243.0,19.0,120.0,-0.0,-10.0,-3.0,-3.1,-1.5,1.4,0.28,-0.15,-0.85,0.43,0.0,0.0,0.0
1752780297900,231.0,14.0,120.0,4.0,-11.0,-5.0,2.6,-1.3,-1.8,0.22,-0.13,-0.85,0.46,0.0,0.0,0.0
1752780297952,220.0,7.0,116.0,1.0,-7.0,-5.0,-0.7,2.8,-0.7,0.18,-0.18,-0.83,0.5,0.0,0.0,0.0
1752780297985,201.0,-5.0,114.0,-2.0,-5.0,-2.0,-1.0,4.1,1.7,0.12,-0.23,-0.81,0.53,0.0,0.0,0.0
1752780298030,192.0,-9.0,112.0,-2.0,-11.0,-2.0,-0.8,-2.7,2.1,0.06,-0.23,-0.8,0.55,0.0,0.0,0.0
1752780298173,178.0,-17.0,114.0,-2.0,-8.0,-5.0,0.8,0.4,-1.3,-0.01,-0.24,-0.8,0.55,0.0,0.0,0.0
1752780298323,144.0,-32.0,122.0,-6.0,-5.0,-4.0,-0.7,1.7,0.8,-0.01,-0.26,-0.8,0.54,0.0,0.0,0.0
1752780298364,133.0,-35.0,127.0,-6.0,-6.0,-5.0,-0.2,0.6,0.5,-0.2,-0.26,-0.82,0.46,0.0,0.0,0.0
1752780298405,130.0,-36.0,131.0,-5.0,-6.0,-8.0,1.2,0.3,-3.2,-0.21,-0.27,-0.83,0.44,0.0,0.0,0.0
1752780298440,127.0,-34.0,136.0,-6.0,-7.0,-4.0,-0.4,-1.2,1.3,-0.2,-0.28,-0.85,0.41,0.0,0.0,0.0
1752780298487,120.0,-37.0,138.0,-7.0,-3.0,-3.0,-1.1,2.2,3.3,-0.22,-0.28,-0.85,0.4,0.0,0.0,0.0
1752780298540,110.0,-40.0,142.0,-8.0,-2.0,-2.0,-3.1,1.7,7.0,-0.23,-0.29,-0.85,0.37,0.0,0.0,0.0
1752780298687,92.0,-52.0,154.0,-6.0,-4.0,-5.0,2.5,-0.4,-0.2,-0.33,-0.4,-0.79,0.34,0.0,0.0,0.0
1752780298838,85.0,-66.0,147.0,-12.0,-1.0,-3.0,-4.2,2.4,-0.4,-0.41,-0.39,-0.72,0.39,0.0,0.0,0.0
1752780298972,85.0,-75.0,129.0,-8.0,-1.0,-1.0,1.5,0.9,0.2,-0.48,-0.39,-0.65,0.44,0.0,0.0,0.0
1752780299015,85.0,-76.0,124.0,-9.0,-2.0,-1.0,0.6,-0.5,-0.4,-0.49,-0.39,-0.64,0.44,0.0,0.0,0.0
1752780299058,85.0,-79.0,102.0,-10.0,-2.0,-1.0,0.3,0.3,-0.5,-0.5,-0.38,-0.62,0.46,0.0,0.0,0.0
1752780299109,85.0,-80.0,80.0,-10.0,-2.0,0.0,-0.7,-0.1,-0.3,-0.53,-0.37,-0.59,0.48,0.0,0.0,0.0
1752780299143,84.0,-80.0,67.0,-9.0,-1.0,-0.0,0.6,0.0,-1.0,-0.54,-0.37,-0.58,0.49,0.0,0.0,0.0
1752780299190,83.0,-79.0,50.0,-9.0,-2.0,1.0,1.0,-0.4,-0.3,-0.55,-0.37,-0.56,0.49,0.0,0.0,0.0
1752780299226,83.0,-77.0,39.0,-10.0,-1.0,1.0,-0.8,0.4,-0.3,-0.57,-0.36,-0.54,0.5,0.0,0.0,0.0
1752780299276,82.0,-76.0,36.0,-9.0,-1.0,2.0,0.0,0.4,-0.2,-0.58,-0.34,-0.53,0.51,0.0,0.0,0.0
1752780299308,81.0,-75.0,28.0,-9.0,-1.0,2.0,-0.0,-0.3,-0.3,-0.6,-0.34,-0.52,0.51,0.0,0.0,0.0
1752780299339,80.0,-73.0,23.0,-9.0,-1.0,2.0,0.1,0.3,-0.3,-0.61,-0.33,-0.51,0.51,0.0,0.0,0.0
1752780299493,79.0,-72.0,19.0,-9.0,-1.0,3.0,0.2,0.2,-0.2,-0.62,-0.33,-0.5,0.51,0.0,0.0,0.0
1752780299526,76.0,-68.0,9.0,-9.0,-0.0,4.0,-0.0,0.2,-0.1,-0.65,-0.32,-0.47,0.51,0.0,0.0,0.0
1752780299567,75.0,-66.0,7.0,-9.0,-0.0,4.0,0.1,0.0,-0.1,-0.66,-0.31,-0.45,0.51,0.0,0.0,0.0
1752780299610,74.0,-64.0,5.0,-9.0,-0.0,4.0,-0.1,0.1,-0.0,-0.67,-0.3,-0.44,0.51,0.0,0.0,0.0
1752780299643,73.0,-62.0,2.0,-9.0,-0.0,5.0,0.2,-0.0,-0.1,-0.69,-0.3,-0.42,0.51,0.0,0.0,0.0
1752780299691,72.0,-60.0,-0.0,-9.0,0.0,5.0,-0.0,0.7,-0.2,-0.7,-0.29,-0.4,0.51,0.0,0.0,0.0
1752780299727,70.0,-56.0,-2.0,-7.0,1.0,6.0,0.6,0.9,-0.0,-0.72,-0.28,-0.38,0.51,0.0,0.0,0.0
1752780299774,69.0,-54.0,-3.0,-8.0,0.0,6.0,-0.3,-0.0,0.2,-0.73,-0.27,-0.36,0.51,0.0,0.0,0.0
1752780299810,69.0,-51.0,-4.0,-7.0,1.0,6.0,0.1,0.3,-0.3,-0.75,-0.26,-0.34,0.51,0.0,0.0,0.0
1752780299844,68.0,-48.0,-5.0,-7.0,1.0,6.0,0.5,-0.1,-0.4,-0.76,-0.25,-0.32,0.51,0.0,0.0,0.0
1752780299901,67.0,-44.0,-6.0,-7.0,1.0,7.0,-0.3,0.2,-0.2,-0.77,-0.24,-0.3,0.51,0.0,0.0,0.0
1752780299923,66.0,-41.0,-7.0,-6.0,1.0,7.0,0.2,-0.2,-0.6,-0.78,-0.23,-0.27,0.51,0.0,0.0,0.0
1752780299980,65.0,-38.0,-8.0,-6.0,1.0,8.0,0.3,0.1,-0.2,-0.79,-0.23,-0.25,0.51,0.0,0.0,0.0
1752780300005,65.0,-36.0,-8.0,-6.0,1.0,8.0,-0.0,-0.3,-0.1,-0.8,-0.22,-0.23,0.51,0.0,0.0,0.0
1752780300040,64.0,-33.0,-9.0,-5.0,1.0,8.0,0.5,0.0,-0.3,-0.81,-0.21,-0.2,0.51,0.0,0.0,0.0
1752780300184,63.0,-30.0,-9.0,-4.0,2.0,8.0,-0.5,0.3,-0.7,-0.82,-0.2,-0.19,0.5,0.0,0.0,0.0
1752780300230,61.0,-20.0,-9.0,-3.0,2.0,8.0,0.2,0.2,-0.8,-0.85,-0.15,-0.11,0.5,0.0,0.0,0.0
1752780300267,61.0,-17.0,-9.0,-3.0,2.0,9.0,-0.2,0.2,-0.4,-0.85,-0.14,-0.09,0.5,0.0,0.0,0.0
1752780300308,61.0,-14.0,-9.0,-3.0,2.0,9.0,-0.6,0.2,-0.4,-0.85,-0.13,-0.07,0.5,0.0,0.0,0.0
1752780300347,61.0,-12.0,-10.0,-2.0,2.0,9.0,0.4,0.1,-0.6,-0.85,-0.13,-0.05,0.5,0.0,0.0,0.0
1752780300384,61.0,-10.0,-10.0,-1.0,1.0,9.0,-0.0,-0.4,-0.2,-0.85,-0.12,-0.03,0.51,0.0,0.0,0.0
1752780300425,61.0,-6.0,-10.0,-1.0,2.0,9.0,-0.2,0.4,-0.5,-0.86,-0.11,-0.01,0.51,0.0,0.0,0.0
1752780300467,61.0,-4.0,-11.0,-0.0,2.0,9.0,-0.0,0.4,-0.4,-0.86,-0.1,0.02,0.51,0.0,0.0,0.0
1752780300508,61.0,-1.0,-11.0,-0.0,2.0,9.0,-0.3,-0.1,-0.2,-0.86,-0.09,0.04,0.51,0.0,0.0,0.0
1752780300548,61.0,2.0,-11.0,1.0,2.0,9.0,0.2,0.4,-0.5,-0.86,-0.08,0.07,0.5,0.0,0.0,0.0
1752780300584,60.0,6.0,-12.0,1.0,2.0,9.0,-0.1,-0.2,-0.3,-0.86,-0.07,0.09,0.5,0.0,0.0,0.0
1752780300632,60.0,10.0,-13.0,2.0,2.0,9.0,0.1,0.2,-0.3,-0.86,-0.05,0.12,0.5,0.0,0.0,0.0
1752780300885,62.0,35.0,-11.0,5.0,2.0,7.0,-0.3,0.4,-0.4,-0.82,0.08,0.29,0.49,0.0,0.0,0.0
1752780300918,62.0,39.0,-11.0,7.0,1.0,6.0,0.1,-0.3,-1.1,-0.81,0.1,0.33,0.48,0.0,0.0,0.0
1752780301059,65.0,56.0,-10.0,8.0,1.0,5.0,-0.4,0.3,0.1,-0.8,0.13,0.36,0.46,0.0,0.0,0.0
1752780301099,66.0,62.0,-14.0,8.0,2.0,4.0,-1.0,0.3,0.0,-0.71,0.23,0.47,0.47,0.0,0.0,0.0
1752780301136,69.0,67.0,-24.0,9.0,1.0,2.0,0.7,-0.6,-0.9,-0.68,0.24,0.52,0.46,0.0,0.0,0.0
1752780301187,72.0,69.0,-36.0,9.0,2.0,3.0,-0.1,-0.2,0.0,-0.66,0.24,0.54,0.47,0.0,0.0,0.0
1752780301220,71.0,71.0,-42.0,8.0,2.0,1.0,-0.9,0.3,-1.0,-0.64,0.24,0.57,0.46,0.0,0.0,0.0
1752780301268,69.0,75.0,-48.0,10.0,2.0,1.0,-0.2,0.2,-0.7,-0.63,0.25,0.59,0.43,0.0,0.0,0.0
1752780301300,67.0,79.0,-51.0,9.0,2.0,1.0,-0.1,0.3,-0.5,-0.62,0.28,0.6,0.41,0.0,0.0,0.0
1752780301338,67.0,81.0,-52.0,9.0,2.0,0.0,-0.2,0.4,-0.4,-0.62,0.3,0.6,0.41,0.0,0.0,0.0
1752780301385,65.0,85.0,-4.0,10.0,1.0,-0.0,-0.3,0.2,-0.1,-0.61,0.32,0.61,0.39,0.0,0.0,0.0
1752780301430,61.0,88.0,-178.0,9.0,0.0,-0.0,-0.4,-0.1,-0.2,-0.61,0.34,0.62,0.37,0.0,0.0,0.0
1752780301474,61.0,88.0,-178.0,10.0,1.0,-1.0,0.1,-0.0,-0.7,-0.6,0.34,0.63,0.35,0.0,0.0,0.0
1752780301522,60.0,85.0,-178.0,9.0,1.0,-1.0,0.1,-0.4,-1.9,-0.59,0.35,0.64,0.34,0.0,0.0,0.0
1752780301679,63.0,76.0,168.0,9.0,-0.0,-2.0,-0.1,-0.3,-0.9,-0.53,0.44,0.65,0.32,0.0,0.0,0.0
1752780302021,71.0,46.0,177.0,7.0,0.0,-8.0,-0.3,0.2,-0.6,-0.32,0.57,0.72,0.23,0.0,0.0,0.0
1752780302167,75.0,32.0,-178.0,5.0,1.0,-9.0,-0.3,0.2,-0.1,-0.29,0.57,0.74,0.22,0.0,0.0,0.0
1752780302210,76.0,28.0,-176.0,5.0,-0.0,-7.0,-0.6,0.0,-1.7,-0.17,0.6,0.77,0.17,0.0,0.0,0.0
1752780302253,77.0,25.0,-176.0,4.0,1.0,-9.0,0.3,-0.8,-0.5,-0.15,0.61,0.76,0.16,0.0,0.0,0.0
1752780302300,78.0,21.0,-174.0,3.0,1.0,-9.0,-0.3,0.3,-0.0,-0.12,0.61,0.76,0.15,0.0,0.0,0.0
1752780302333,78.0,19.0,-172.0,3.0,1.0,-9.0,-0.1,0.0,-0.3,-0.1,0.61,0.77,0.16,0.0,0.0,0.0
1752780302478,80.0,15.0,-168.0,2.0,2.0,-11.0,-0.7,0.3,0.0,-0.07,0.62,0.77,0.16,0.0,0.0,0.0
1752780302537,81.0,15.0,-168.0,2.0,2.0,-10.0,-0.2,-0.1,-0.3,-0.03,0.64,0.75,0.16,0.0,0.0,0.0
1752780302667,85.0,10.0,-165.0,2.0,3.0,-9.0,-0.4,0.3,-0.1,-0.02,0.65,0.74,0.16,0.0,0.0,0.0
1752780302704,87.0,10.0,-165.0,2.0,3.0,-10.0,-0.1,-0.1,-0.5,0.03,0.67,0.72,0.16,0.0,0.0,0.0
1752780302751,87.0,9.0,-163.0,1.0,3.0,-9.0,0.0,0.4,0.1,0.04,0.68,0.71,0.16,0.0,0.0,0.0
1752780302787,88.0,7.0,-162.0,1.0,3.0,-9.0,-0.2,0.1,-0.1,0.06,0.68,0.71,0.16,0.0,0.0,0.0
1752780302828,90.0,5.0,-160.0,0.0,3.0,-9.0,-0.5,0.1,0.0,0.08,0.69,0.7,0.16,0.0,0.0,0.0
1752780302885,91.0,3.0,-159.0,1.0,4.0,-9.0,0.2,0.2,0.1,0.11,0.7,0.69,0.15,0.0,0.0,0.0
1752780303118,95.0,-4.0,-152.0,-1.0,5.0,-8.0,0.1,-0.1,0.1,0.13,0.71,0.68,0.14,0.0,0.0,0.0
1752780303155,94.0,-4.0,-152.0,-0.0,5.0,-9.0,0.3,-0.1,0.1,0.2,0.71,0.66,0.14,0.0,0.0,0.0
1752780303205,93.0,-2.0,-153.0,-1.0,5.0,-8.0,-0.7,0.2,1.1,0.19,0.7,0.67,0.15,0.0,0.0,0.0
1752780303238,92.0,4.0,-152.0,2.0,5.0,-8.0,1.3,0.0,0.4,0.16,0.7,0.67,0.18,0.0,0.0,0.0
1752780303280,94.0,12.0,-149.0,3.0,5.0,-8.0,-0.6,1.2,-0.4,0.13,0.7,0.66,0.24,0.0,0.0,0.0
1752780303330,99.0,25.0,-149.0,5.0,4.0,-9.0,-1.4,-0.5,-2.6,0.04,0.72,0.61,0.33,0.0,0.0,0.0
1752780303474,147.0,53.0,-153.0,9.0,2.0,-6.0,-1.0,-0.7,-0.6,-0.13,0.71,0.52,0.46,0.0,0.0,0.0
1752780303515,138.0,57.0,-159.0,9.0,1.0,-6.0,-0.8,0.0,-1.1,-0.18,0.72,0.49,0.46,0.0,0.0,0.0
1752780303550,125.0,63.0,-169.0,9.0,1.0,-6.0,-0.5,0.4,-1.6,-0.24,0.72,0.46,0.46,0.0,0.0,0.0
1752780303593,110.0,70.0,153.0,9.0,-1.0,-5.0,-0.1,1.1,-2.4,-0.32,0.72,0.38,0.48,0.0,0.0,0.0
1752780303635,101.0,67.0,114.0,11.0,-4.0,-4.0,1.7,0.2,-3.1,-0.4,0.73,0.26,0.5,0.0,0.0,0.0
1752780303679,94.0,59.0,101.0,9.0,-4.0,-2.0,0.7,2.2,-0.9,-0.46,0.72,0.16,0.49,0.0,0.0,0.0
1752780303822,55.0,11.0,83.0,4.0,-8.0,1.0,1.0,1.2,-0.4,-0.52,0.72,0.06,0.46,0.0,0.0,0.0
1752780303876,47.0,3.0,79.0,2.0,-8.0,3.0,1.8,1.2,0.4,-0.7,0.61,-0.21,0.32,0.0,0.0,0.0
1752780303892,43.0,-4.0,72.0,0.0,-8.0,3.0,1.1,1.1,-0.5,-0.74,0.55,-0.25,0.3,0.0,0.0,0.0
1752780303943,42.0,-6.0,62.0,-1.0,-8.0,6.0,0.3,-0.1,0.3,-0.8,0.46,-0.24,0.3,0.0,0.0,0.0
1752780303983,41.0,-13.0,48.0,-2.0,-6.0,9.0,0.9,0.6,2.2,-0.84,0.35,-0.24,0.32,0.0,0.0,0.0
1752780304025,37.0,-21.0,43.0,0.0,-2.0,10.0,4.8,3.0,2.8,-0.87,0.27,-0.29,0.29,0.0,0.0,0.0
1752780304063,37.0,-32.0,33.0,-7.0,-11.0,4.0,1.4,-4.4,-2.4,-0.88,0.14,-0.35,0.3,0.0,0.0,0.0
1752780304101,32.0,-43.0,25.0,-7.0,0.0,7.0,-0.3,1.1,1.2,-0.88,0.06,-0.4,0.26,0.0,0.0,0.0
1752780304243,27.0,-53.0,17.0,-8.0,3.0,4.0,1.2,2.5,2.4,-0.86,-0.01,-0.46,0.21,0.0,0.0,0.0
1752780304284,7.0,-85.0,-4.0,-8.0,5.0,-1.0,1.3,4.7,-1.4,-0.74,-0.08,-0.66,0.06,0.0,0.0,0.0
1752780304330,3.0,-85.0,-175.0,-10.0,-2.0,2.0,1.8,-2.4,2.0,-0.7,-0.08,-0.71,0.02,0.0,0.0,0.0
1752780304374,357.0,-77.0,-139.0,-7.0,6.0,-2.0,2.1,3.7,0.7,-0.65,-0.09,-0.76,-0.02,0.0,0.0,0.0
1752780304415,343.0,-67.0,-139.0,-8.0,6.0,-5.0,1.4,-0.7,-1.4,-0.58,-0.1,-0.8,-0.09,0.0,0.0,0.0
1752780304462,333.0,-60.0,-138.0,-7.0,2.0,-4.0,0.9,-0.3,1.1,-0.55,-0.11,-0.82,-0.13,0.0,0.0,0.0
1752780304495,320.0,-52.0,-133.0,-7.0,10.0,-6.0,0.3,4.9,-1.5,-0.52,-0.13,-0.83,-0.17,0.0,0.0,0.0
1752780304545,307.0,-45.0,-130.0,-6.0,7.0,-4.0,0.8,2.0,0.2,-0.48,-0.16,-0.84,-0.22,0.0,0.0,0.0
1752780304582,298.0,-40.0,-127.0,-5.0,7.0,-5.0,0.5,2.4,0.5,-0.46,-0.18,-0.83,-0.26,0.0,0.0,0.0
1752780304632,290.0,-36.0,-126.0,-5.0,9.0,-6.0,0.5,2.1,-1.2,-0.42,-0.2,-0.84,-0.29,0.0,0.0,0.0
1752780304682,284.0,-34.0,-126.0,-6.0,9.0,-4.0,0.4,2.0,0.1,-0.4,-0.19,-0.84,-0.31,0.0,0.0,0.0
1752780304723,282.0,-34.0,-126.0,-6.0,6.0,-6.0,-0.4,-0.4,-0.8,-0.39,-0.16,-0.85,-0.32,0.0,0.0,0.0
1752780304765,281.0,-35.0,-127.0,-6.0,5.0,-6.0,-0.2,0.1,-0.6,-0.39,-0.14,-0.85,-0.32,0.0,0.0,0.0
1752780304798,281.0,-36.0,-129.0,-6.0,8.0,-4.0,0.1,2.0,0.9,-0.38,-0.12,-0.86,-0.32,0.0,0.0,0.0
1752780304839,284.0,-38.0,-131.0,-6.0,3.0,-6.0,0.2,-2.7,-0.5,-0.39,-0.1,-0.86,-0.31,0.0,0.0,0.0
1752780304882,287.0,-39.0,-134.0,-7.0,4.0,-6.0,-0.2,-0.8,-1.1,-0.39,-0.07,-0.87,-0.29,0.0,0.0,0.0
1752780304928,289.0,-41.0,-136.0,-7.0,6.0,-6.0,-0.3,0.6,-0.8,-0.39,-0.05,-0.88,-0.28,0.0,0.0,0.0
1752780304957,292.0,-43.0,-138.0,-7.0,4.0,-5.0,-0.1,0.0,0.1,-0.4,-0.03,-0.88,-0.27,0.0,0.0,0.0
1752780304999,301.0,-46.0,-143.0,-7.0,1.0,-7.0,-0.2,-2.5,-1.4,-0.41,-0.01,-0.88,-0.24,0.0,0.0,0.0
1752780305040,307.0,-49.0,-147.0,-8.0,3.0,-6.0,-0.7,0.1,-0.4,-0.42,0.01,-0.88,-0.21,0.0,0.0,0.0
1752780305079,314.0,-51.0,-150.0,-7.0,4.0,-4.0,0.6,1.3,1.7,-0.44,0.02,-0.88,-0.19,0.0,0.0,0.0
1752780305132,331.0,-54.0,-163.0,-8.0,-2.0,-4.0,0.9,-4.0,0.3,-0.45,0.03,-0.88,-0.13,0.0,0.0,0.0
1752780305179,337.0,-54.0,-170.0,-8.0,1.0,-5.0,0.4,1.3,0.5,-0.45,0.06,-0.88,-0.1,0.0,0.0,0.0
1752780305229,340.0,-53.0,-173.0,-8.0,4.0,-4.0,-0.3,-0.0,0.6,-0.44,0.08,-0.89,-0.08,0.0,0.0,0.0
1752780305263,348.0,-52.0,179.0,-7.0,-2.0,-6.0,0.4,-0.9,0.6,-0.43,0.1,-0.89,-0.05,0.0,0.0,0.0
1752780305498,59.0,-45.0,125.0,-5.0,-6.0,-6.0,2.0,-0.0,-2.6,-0.43,0.14,-0.89,0.04,0.0,0.0,0.0
1752780305547,71.0,-45.0,104.0,-6.0,-10.0,-2.0,0.8,-2.6,-0.6,-0.51,0.13,-0.78,0.35,0.0,0.0,0.0
1752780305584,75.0,-45.0,88.0,-5.0,-8.0,2.0,1.7,-1.5,0.8,-0.57,0.1,-0.69,0.43,0.0,0.0,0.0
1752780305631,70.0,-47.0,72.0,-6.0,-6.0,5.0,0.9,0.7,1.4,-0.64,0.07,-0.62,0.45,0.0,0.0,0.0
1752780305667,65.0,-48.0,58.0,-7.0,-6.0,5.0,1.5,-1.4,0.2,-0.69,0.05,-0.57,0.44,0.0,0.0,0.0
1752780305713,62.0,-48.0,46.0,-6.0,-6.0,6.0,1.1,0.3,1.5,-0.73,0.02,-0.52,0.44,0.0,0.0,0.0
1752780305750,58.0,-48.0,37.0,-7.0,0.0,7.0,0.8,3.6,0.9,-0.77,-0.0,-0.48,0.42,0.0,0.0,0.0
1752780305800,56.0,-47.0,29.0,-6.0,-4.0,7.0,0.7,-0.7,0.8,-0.79,-0.03,-0.46,0.42,0.0,0.0,0.0
1752780305834,55.0,-47.0,25.0,-6.0,-0.0,7.0,0.6,2.4,0.3,-0.8,-0.04,-0.43,0.41,0.0,0.0,0.0
1752780305880,54.0,-45.0,21.0,-7.0,-3.0,7.0,0.1,-1.3,0.5,-0.81,-0.05,-0.42,0.41,0.0,0.0,0.0
1752780305934,56.0,-43.0,17.0,-6.0,-4.0,7.0,0.5,-1.5,0.1,-0.81,-0.07,-0.38,0.43,0.0,0.0,0.0
1752780305960,56.0,-41.0,14.0,-6.0,-1.0,7.0,0.8,0.9,-0.3,-0.82,-0.08,-0.36,0.44,0.0,0.0,0.0
1752780305996,55.0,-39.0,11.0,-5.0,-2.0,7.0,0.2,-0.6,0.2,-0.83,-0.08,-0.34,0.44,0.0,0.0,0.0
1752780306047,55.0,-36.0,7.0,-5.0,-1.0,8.0,1.0,-0.3,-0.2,-0.84,-0.1,-0.31,0.44,0.0,0.0,0.0
1752780306091,55.0,-35.0,5.0,-5.0,0.0,8.0,0.6,1.3,-1.1,-0.85,-0.11,-0.28,0.44,0.0,0.0,0.0
1752780306134,54.0,-33.0,1.0,-5.0,0.0,9.0,0.8,1.1,0.3,-0.86,-0.12,-0.26,0.43,0.0,0.0,0.0
1752780306183,53.0,-31.0,-0.0,-4.0,1.0,9.0,1.3,0.2,1.5,-0.86,-0.12,-0.24,0.43,0.0,0.0,0.0
1752780306324,48.0,-42.0,10.0,-7.0,-3.0,6.0,-0.7,-1.7,-1.2,-0.85,-0.08,-0.36,0.38,0.0,0.0,0.0
1752780306359,46.0,-44.0,9.0,-7.0,-3.0,6.0,-0.1,-0.6,-0.8,-0.85,-0.09,-0.37,0.36,0.0,0.0,0.0
1752780306398,44.0,-45.0,4.0,-7.0,-1.0,6.0,0.0,-0.8,-1.4,-0.86,-0.11,-0.36,0.35,0.0,0.0,0.0
1752780306549,41.0,-43.0,-1.0,-4.0,4.0,7.0,0.6,1.0,1.3,-0.87,-0.13,-0.35,0.33,0.0,0.0,0.0
1752780306698,23.0,-32.0,-20.0,-3.0,1.0,8.0,2.8,-1.7,0.6,-0.91,-0.2,-0.2,0.3,0.0,0.0,0.0
1752780306731,16.0,-36.0,-23.0,-2.0,4.0,8.0,4.0,0.5,1.3,-0.93,-0.21,-0.29,0.13,0.0,0.0,0.0
1752780306782,7.0,-40.0,-32.0,-5.0,5.0,5.0,2.6,0.6,-2.7,-0.9,-0.24,-0.34,0.05,0.0,0.0,0.0
1752780306816,358.0,-45.0,-43.0,-5.0,7.0,2.0,1.6,4.4,-2.7,-0.87,-0.28,-0.41,-0.01,0.0,0.0,0.0
1752780306851,351.0,-46.0,-54.0,-6.0,6.0,3.0,1.3,-0.3,-0.6,-0.84,-0.3,-0.45,-0.07,0.0,0.0,0.0
1752780306898,343.0,-47.0,-67.0,-6.0,8.0,2.0,1.2,1.3,-0.6,-0.8,-0.32,-0.5,-0.11,0.0,0.0,0.0
1752780306932,338.0,-47.0,-74.0,-6.0,8.0,3.0,1.3,1.7,1.4,-0.76,-0.33,-0.55,-0.15,0.0,0.0,0.0
1752780306982,330.0,-46.0,-84.0,-6.0,6.0,-1.0,1.2,-2.4,-3.4,-0.71,-0.33,-0.6,-0.19,0.0,0.0,0.0
1752780307018,323.0,-45.0,-95.0,-7.0,7.0,-2.0,0.1,-0.2,-3.3,-0.65,-0.32,-0.65,-0.22,0.0,0.0,0.0
1752780307049,317.0,-43.0,-102.0,-7.0,8.0,-2.0,0.1,2.4,0.3,-0.61,-0.33,-0.68,-0.24,0.0,0.0,0.0
1752780307092,311.0,-40.0,-107.0,-5.0,7.0,-6.0,1.0,0.4,-3.3,-0.58,-0.32,-0.71,-0.25,0.0,0.0,0.0
1752780307149,307.0,-39.0,-111.0,-6.0,7.0,-4.0,-0.1,0.9,-0.3,-0.54,-0.3,-0.74,-0.27,0.0,0.0,0.0
1752780307182,302.0,-38.0,-116.0,-6.0,11.0,-1.0,1.5,0.5,-0.3,-0.51,-0.29,-0.76,-0.27,0.0,0.0,0.0
1752780307226,297.0,-37.0,-121.0,-5.0,3.0,-7.0,0.7,-3.5,-2.6,-0.46,-0.25,-0.8,-0.28,0.0,0.0,0.0
1752780307265,294.0,-36.0,-127.0,-6.0,8.0,-5.0,-0.3,2.4,0.7,-0.42,-0.22,-0.83,-0.28,0.0,0.0,0.0
1752780307300,290.0,-35.0,-130.0,-5.0,7.0,-6.0,0.8,-1.1,-2.3,-0.4,-0.2,-0.85,-0.28,0.0,0.0,0.0
1752780307352,289.0,-34.0,-136.0,-6.0,5.0,-7.0,-0.2,-1.1,-1.5,-0.37,-0.16,-0.87,-0.27,0.0,0.0,0.0
1752780307385,290.0,-35.0,-137.0,-6.0,8.0,-5.0,-0.3,3.0,0.7,-0.36,-0.15,-0.88,-0.26,0.0,0.0,0.0
1752780307432,294.0,-36.0,-142.0,-5.0,2.0,-8.0,0.3,-2.3,-1.1,-0.36,-0.12,-0.9,-0.24,0.0,0.0,0.0
1752780307482,298.0,-37.0,-145.0,-6.0,5.0,-6.0,-0.2,1.1,0.3,-0.36,-0.09,-0.9,-0.22,0.0,0.0,0.0
1752780307512,300.0,-38.0,-147.0,-6.0,6.0,-6.0,0.0,2.0,0.4,-0.36,-0.08,-0.91,-0.2,0.0,0.0,0.0
1752780307753,353.0,-50.0,176.0,-7.0,-1.0,-5.0,0.5,-0.3,1.3,-0.37,0.03,-0.92,-0.12,0.0,0.0,0.0
1752780307803,1.0,-51.0,168.0,-7.0,-3.0,-6.0,0.6,-1.3,0.1,-0.43,0.13,-0.89,-0.0,0.0,0.0,0.0
1752780307834,7.0,-51.0,163.0,-7.0,-4.0,-5.0,0.3,-1.9,1.0,-0.45,0.15,-0.88,0.03,0.0,0.0,0.0
1752780308079,21.0,-53.0,144.0,-8.0,-4.0,-5.0,0.3,-0.6,-0.1,-0.48,0.19,-0.85,0.07,0.0,0.0,0.0
1752780308124,22.0,-53.0,142.0,-8.0,-4.0,-5.0,0.1,-0.6,0.5,-0.5,0.2,-0.83,0.1,0.0,0.0,0.0
1752780308165,23.0,-53.0,141.0,-8.0,-4.0,-4.0,0.2,-0.3,0.2,-0.51,0.21,-0.83,0.1,0.0,0.0,0.0
1752780308318,24.0,-53.0,139.0,-8.0,-4.0,-4.0,0.3,-0.2,0.4,-0.51,0.21,-0.83,0.11,0.0,0.0,0.0
1752780308358,27.0,-52.0,135.0,-8.0,-4.0,-4.0,0.3,-0.1,0.0,-0.52,0.22,-0.82,0.12,0.0,0.0,0.0
1752780308495,29.0,-52.0,132.0,-7.0,-5.0,-4.0,0.3,-0.8,0.1,-0.52,0.23,-0.81,0.13,0.0,0.0,0.0
1752780308541,28.0,-52.0,132.0,-7.0,-4.0,-4.0,0.3,0.1,0.1,-0.53,0.23,-0.81,0.13,0.0,0.0,0.0
1752780308581,28.0,-52.0,132.0,-7.0,-4.0,-4.0,0.3,0.3,0.2,-0.53,0.23,-0.81,0.13,0.0,0.0,0.0
1752780308619,28.0,-52.0,132.0,-8.0,-4.0,-4.0,0.4,-0.4,0.0,-0.53,0.23,-0.81,0.13,0.0,0.0,0.0
1752780308652,26.0,-53.0,133.0,-7.0,-4.0,-4.0,0.6,0.0,-0.4,-0.53,0.23,-0.81,0.12,0.0,0.0,0.0
1752780308699,23.0,-55.0,134.0,-8.0,-3.0,-3.0,0.4,1.2,0.6,-0.54,0.22,-0.81,0.11,0.0,0.0,0.0
1752780308736,20.0,-56.0,136.0,-8.0,-4.0,-4.0,-0.2,-0.8,0.3,-0.54,0.22,-0.81,0.09,0.0,0.0,0.0
1752780308782,15.0,-56.0,140.0,-8.0,-4.0,-5.0,0.0,0.2,-0.6,-0.53,0.23,-0.81,0.07,0.0,0.0,0.0
1752780308819,14.0,-56.0,141.0,-7.0,-5.0,-5.0,0.9,-1.5,-0.7,-0.53,0.24,-0.81,0.05,0.0,0.0,0.0
1752780308865,20.0,-54.0,137.0,-8.0,-4.0,-4.0,-0.1,-0.2,-0.2,-0.53,0.23,-0.81,0.09,0.0,0.0,0.0
1752780308902,21.0,-54.0,137.0,-7.0,-5.0,-4.0,0.4,-0.8,-0.2,-0.52,0.23,-0.81,0.09,0.0,0.0,0.0
1752780308936,22.0,-53.0,136.0,-8.0,-4.0,-3.0,-0.3,0.0,1.0,-0.53,0.24,-0.81,0.1,0.0,0.0,0.0
1752780308983,24.0,-53.0,134.0,-8.0,-5.0,-3.0,-0.0,-0.4,0.5,-0.53,0.24,-0.81,0.11,0.0,0.0,0.0
1752780309019,26.0,-51.0,136.0,-7.0,-3.0,-5.0,0.7,0.8,-0.9,-0.52,0.24,-0.82,0.11,0.0,0.0,0.0
1752780309066,27.0,-51.0,135.0,-7.0,-4.0,-5.0,0.3,0.5,-0.4,-0.51,0.24,-0.82,0.12,0.0,0.0,0.0
1752780309103,29.0,-50.0,133.0,-8.0,-4.0,-3.0,-0.2,0.4,1.3,-0.51,0.25,-0.81,0.13,0.0,0.0,0.0
1752780309137,32.0,-49.0,131.0,-7.0,-3.0,-6.0,0.1,1.6,-1.3,-0.51,0.26,-0.81,0.15,0.0,0.0,0.0
1752780309183,35.0,-47.0,130.0,-7.0,-4.0,-6.0,0.1,2.0,-2.8,-0.51,0.26,-0.81,0.16,0.0,0.0,0.0
1752780309218,41.0,-45.0,121.0,-6.0,-3.0,-5.0,0.9,3.1,-2.0,-0.52,0.28,-0.79,0.19,0.0,0.0,0.0
1752780309370,65.0,-22.0,84.0,-2.0,-9.0,5.0,0.9,0.0,3.2,-0.56,0.32,-0.73,0.23,0.0,0.0,0.0
1752780309403,72.0,-12.0,71.0,-1.0,-6.0,3.0,1.0,3.5,-0.5,-0.65,0.39,-0.46,0.46,0.0,0.0,0.0
1752780309437,72.0,-8.0,64.0,1.0,-7.0,5.0,1.9,1.2,-0.8,-0.69,0.37,-0.38,0.5,0.0,0.0,0.0
1752780309477,74.0,0.0,52.0,7.0,-32.0,20.0,-7.5,15.2,10.4,-0.72,0.35,-0.26,0.54,0.0,0.0,0.0
1752780309520,68.0,-1.0,46.0,8.0,-6.0,-1.0,5.2,6.1,-6.9,-0.76,0.32,-0.23,0.52,0.0,0.0,0.0
1752780309553,62.0,-1.0,39.0,-0.0,-7.0,5.0,1.1,-2.4,-3.8,-0.81,0.28,-0.18,0.48,0.0,0.0,0.0
1752780309803,57.0,3.0,31.0,2.0,4.0,12.0,-0.3,0.5,3.4,-0.84,0.26,-0.12,0.47,0.0,0.0,0.0
1752780310046,58.0,-1.0,-25.0,-3.0,0.0,9.0,0.1,0.0,-0.4,-0.87,-0.14,0.18,0.43,0.0,0.0,0.0
1752780310191,61.0,-4.0,-12.0,-0.0,2.0,9.0,0.2,0.3,-0.4,-0.86,-0.11,0.03,0.5,0.0,0.0,0.0
1752780310239,60.0,-2.0,-12.0,0.0,2.0,9.0,0.4,0.0,-0.3,-0.86,-0.1,0.04,0.5,0.0,0.0,0.0
1752780310372,61.0,-3.0,-12.0,-0.0,2.0,9.0,0.3,0.0,-0.4,-0.86,-0.1,0.03,0.5,0.0,0.0,0.0
1752780310511,61.0,-3.0,-12.0,0.0,2.0,9.0,0.2,0.0,-0.3,-0.86,-0.11,0.03,0.5,0.0,0.0,0.0
1752780310558,60.0,0.0,-10.0,0.0,2.0,9.0,0.2,0.1,-0.5,-0.86,-0.08,0.05,0.5,0.0,0.0,0.0
1752780310606,60.0,0.0,-10.0,0.0,2.0,9.0,0.2,0.1,-0.4,-0.86,-0.07,0.05,0.5,0.0,0.0,0.0
1752780310648,60.0,1.0,-10.0,0.0,2.0,9.0,0.2,0.0,-0.4,-0.86,-0.07,0.05,0.5,0.0,0.0,0.0
1752780310696,60.0,0.0,-10.0,0.0,2.0,9.0,0.1,0.1,-0.4,-0.86,-0.08,0.05,0.5,0.0,0.0,0.0
1752780310733,60.0,0.0,-10.0,0.0,2.0,9.0,0.1,0.1,-0.4,-0.86,-0.08,0.05,0.5,0.0,0.0,0.0
1752780310868,60.0,1.0,-11.0,0.0,2.0,9.0,0.1,0.0,-0.5,-0.86,-0.08,0.05,0.5,0.0,0.0,0.0
1752780311018,60.0,1.0,-11.0,0.0,2.0,9.0,0.1,0.0,-0.4,-0.86,-0.08,0.05,0.5,0.0,0.0,0.0
1752780311264,60.0,1.0,-11.0,1.0,2.0,9.0,0.3,0.2,-0.2,-0.86,-0.07,0.05,0.5,0.0,0.0,0.0
1752780311308,60.0,2.0,-11.0,1.0,2.0,9.0,0.3,0.2,-0.2,-0.86,-0.07,0.06,0.5,0.0,0.0,0.0
1752780311669,60.0,2.0,-11.0,1.0,2.0,9.0,0.2,0.1,-0.1,-0.86,-0.08,0.07,0.5,0.0,0.0,0.0
1752780311719,60.0,2.0,-12.0,0.0,2.0,9.0,0.2,0.1,-0.1,-0.86,-0.08,0.07,0.5,0.0,0.0,0.0
1752780311852,60.0,0.0,-14.0,-0.0,3.0,9.0,-0.0,0.3,-0.3,-0.86,-0.1,0.06,0.49,0.0,0.0,0.0
1752780311913,60.0,-1.0,-17.0,-0.0,3.0,9.0,0.2,0.1,0.1,-0.86,-0.13,0.07,0.49,0.0,0.0,0.0
1752780311956,60.0,-2.0,-20.0,-0.0,4.0,9.0,0.3,0.2,-0.1,-0.85,-0.16,0.07,0.49,0.0,0.0,0.0
1752780311992,60.0,-3.0,-23.0,-0.0,4.0,9.0,0.1,0.2,-0.3,-0.85,-0.18,0.08,0.49,0.0,0.0,0.0
1752780312009,61.0,-3.0,-25.0,-0.0,4.0,9.0,0.1,0.1,-0.1,-0.84,-0.2,0.09,0.49,0.0,0.0,0.0
1752780312060,61.0,-3.0,-26.0,-0.0,5.0,9.0,-0.1,0.1,-0.1,-0.84,-0.2,0.09,0.49,0.0,0.0,0.0
1752780312210,62.0,-3.0,-29.0,-0.0,5.0,9.0,0.1,0.2,0.0,-0.83,-0.23,0.1,0.5,0.0,0.0,0.0
1752780312259,62.0,-3.0,-30.0,-0.0,5.0,8.0,0.2,0.2,0.1,-0.83,-0.24,0.11,0.5,0.0,0.0,0.0
1752780312507,66.0,-5.0,-38.0,-1.0,6.0,8.0,0.3,0.3,0.3,-0.79,-0.3,0.13,0.51,0.0,0.0,0.0
1752780312651,68.0,-6.0,-40.0,-1.0,7.0,7.0,0.2,0.3,0.1,-0.79,-0.31,0.14,0.52,0.0,0.0,0.0
1752780312689,68.0,-7.0,-41.0,-1.0,7.0,7.0,0.1,0.2,-0.0,-0.77,-0.33,0.15,0.52,0.0,0.0,0.0
1752780312728,69.0,-7.0,-42.0,-1.0,7.0,7.0,-0.0,0.2,-0.2,-0.77,-0.33,0.15,0.53,0.0,0.0,0.0
1752780312769,69.0,-6.0,-41.0,-1.0,6.0,7.0,0.0,0.1,-0.2,-0.77,-0.33,0.15,0.53,0.0,0.0,0.0
1752780312805,67.0,-5.0,-39.0,-1.0,6.0,8.0,0.2,0.3,-0.0,-0.78,-0.31,0.14,0.52,0.0,0.0,0.0
1752780312846,66.0,-5.0,-37.0,-1.0,6.0,8.0,0.2,0.1,-0.2,-0.79,-0.29,0.13,0.52,0.0,0.0,0.0
1752780312893,65.0,-4.0,-31.0,-0.0,5.0,9.0,0.1,0.1,-0.1,-0.81,-0.25,0.12,0.52,0.0,0.0,0.0
1752780312926,65.0,-3.0,-28.0,-0.0,5.0,9.0,0.1,0.1,-0.2,-0.82,-0.22,0.1,0.52,0.0,0.0,0.0
1752780312963,66.0,-3.0,-24.0,-0.0,4.0,9.0,0.0,0.5,0.4,-0.82,-0.19,0.09,0.53,0.0,0.0,0.0
1752780313113,67.0,-0.0,-17.0,0.0,3.0,9.0,0.4,-0.0,-0.2,-0.82,-0.13,0.08,0.55,0.0,0.0,0.0
1752780313147,67.0,0.0,-17.0,0.0,3.0,10.0,0.3,-0.1,0.2,-0.82,-0.12,0.08,0.55,0.0,0.0,0.0
1752780313187,67.0,1.0,-17.0,-1.0,5.0,9.0,-0.3,1.0,0.2,-0.83,-0.12,0.08,0.55,0.0,0.0,0.0
1752780313230,67.0,1.0,-17.0,0.0,3.0,9.0,0.7,-0.1,0.0,-0.82,-0.12,0.09,0.55,0.0,0.0,0.0
1752780313264,66.0,2.0,-19.0,1.0,3.0,9.0,0.2,-0.1,-0.1,-0.83,-0.13,0.1,0.54,0.0,0.0,0.0
1752780313414,64.0,7.0,-11.0,2.0,2.0,10.0,0.6,0.3,0.7,-0.84,-0.05,0.11,0.53,0.0,0.0,0.0
1752780313448,66.0,8.0,-11.0,1.0,2.0,9.0,-0.3,0.5,-0.3,-0.83,-0.04,0.11,0.54,0.0,0.0,0.0
1752780313488,69.0,7.0,-10.0,1.0,2.0,10.0,0.3,-0.1,0.6,-0.82,-0.04,0.1,0.56,0.0,0.0,0.0
1752780313528,73.0,6.0,-10.0,1.0,2.0,10.0,0.0,0.3,0.3,-0.8,-0.04,0.1,0.59,0.0,0.0,0.0
1752780313565,77.0,5.0,-10.0,0.0,2.0,11.0,-0.5,1.2,0.4,-0.78,-0.04,0.09,0.62,0.0,0.0,0.0
1752780313614,82.0,5.0,-9.0,-1.0,2.0,9.0,-1.7,0.2,-0.6,-0.76,-0.03,0.08,0.65,0.0,0.0,0.0
1752780313661,87.0,3.0,-9.0,-0.0,2.0,10.0,-0.6,0.5,-0.2,-0.73,-0.03,0.07,0.68,0.0,0.0,0.0
1752780313698,91.0,0.0,-8.0,-0.0,2.0,10.0,-0.2,1.1,0.2,-0.7,-0.05,0.05,0.71,0.0,0.0,0.0
1752780313745,94.0,-1.0,-7.0,-1.0,3.0,9.0,0.1,1.3,-0.3,-0.68,-0.05,0.04,0.73,0.0,0.0,0.0
1752780313782,97.0,-2.0,-7.0,1.0,2.0,10.0,1.9,0.6,-0.1,-0.66,-0.06,0.03,0.75,0.0,0.0,0.0
1752780313816,108.0,-1.0,-8.0,2.0,3.0,9.0,1.8,1.1,-0.9,-0.59,-0.05,0.05,0.81,0.0,0.0,0.0
1752780313867,121.0,-2.0,-8.0,1.0,2.0,8.0,1.1,0.8,-1.9,-0.51,-0.05,0.06,0.86,0.0,0.0,0.0
1752780313902,128.0,-1.0,-7.0,1.0,3.0,8.0,1.2,1.7,-1.3,-0.44,-0.04,0.05,0.9,0.0,0.0,0.0
1752780313942,135.0,-0.0,-6.0,1.0,2.0,9.0,0.8,0.0,-0.9,-0.38,-0.02,0.05,0.92,0.0,0.0,0.0
1752780313994,144.0,1.0,-6.0,2.0,-0.0,5.0,1.1,-3.0,-1.7,-0.31,-0.0,0.05,0.95,0.0,0.0,0.0
1752780314015,153.0,6.0,4.0,2.0,-0.0,7.0,0.4,0.5,-2.4,-0.23,0.06,-0.02,0.97,0.0,0.0,0.0
1752780314158,170.0,10.0,2.0,1.0,-0.0,9.0,-0.7,0.0,-0.5,-0.09,0.09,-0.02,0.99,0.0,0.0,0.0
1752780314199,173.0,8.0,1.0,0.0,-7.0,17.0,-0.7,-7.0,7.2,-0.06,0.07,-0.0,1.0,0.0,0.0,0.0
1752780314237,174.0,3.0,3.0,5.0,18.0,-13.0,14.2,-8.3,-21.3,-0.05,0.03,-0.02,1.0,0.0,0.0,0.0
1752780314279,172.0,0.0,6.0,1.0,4.0,10.0,1.2,-1.4,0.1,-0.07,0.01,-0.05,1.0,0.0,0.0,0.0
1752780314319,171.0,0.0,5.0,2.0,3.0,9.0,0.2,-1.0,1.0,-0.08,0.01,-0.04,1.0,0.0,0.0,0.0
1752780314366,172.0,2.0,2.0,1.0,-0.0,11.0,0.4,-1.3,-0.6,-0.08,0.02,-0.02,1.0,0.0,0.0,0.0
1752780314415,171.0,3.0,1.0,1.0,-0.0,10.0,0.1,0.1,0.7,-0.07,0.03,-0.01,1.0,0.0,0.0,0.0
1752780314454,169.0,4.0,0.0,1.0,0.0,10.0,0.5,0.1,0.1,-0.1,0.04,0.0,0.99,0.0,0.0,0.0
1752780314503,166.0,3.0,-1.0,0.0,0.0,10.0,-0.2,0.4,-0.2,-0.12,0.03,0.01,0.99,0.0,0.0,0.0
1752780314545,162.0,2.0,-1.0,0.0,1.0,9.0,0.4,0.8,-0.5,-0.15,0.01,0.01,0.99,0.0,0.0,0.0
1752780314579,159.0,1.0,-0.0,1.0,1.0,9.0,0.5,0.3,-0.4,-0.18,0.0,0.0,0.98,0.0,0.0,0.0
1752780314619,156.0,0.0,-0.0,1.0,0.0,10.0,0.3,0.4,0.1,-0.21,0.0,0.0,0.98,0.0,0.0,0.0
1752780314671,153.0,-0.0,-0.0,0.0,0.0,10.0,0.3,0.3,0.1,-0.23,-0.0,0.0,0.97,0.0,0.0,0.0
1752780315009,139.0,-1.0,2.0,0.0,-0.0,9.0,0.2,0.2,-0.1,-0.25,-0.01,0.0,0.97,0.0,0.0,0.0
1752780315062,137.0,-1.0,2.0,0.0,-0.0,9.0,0.3,0.2,-0.4,-0.37,-0.01,-0.02,0.93,0.0,0.0,0.0
1752780315196,139.0,-3.0,-2.0,0.0,0.0,11.0,0.6,-0.1,1.2,-0.37,-0.01,-0.02,0.93,0.0,0.0,0.0
1752780315246,141.0,-3.0,-3.0,0.0,2.0,11.0,0.5,1.4,1.5,-0.34,-0.03,0.01,0.94,0.0,0.0,0.0
1752780315279,144.0,-3.0,-7.0,0.0,1.0,5.0,1.0,-0.3,-4.3,-0.31,-0.04,0.04,0.95,0.0,0.0,0.0
1752780315312,144.0,-3.0,-9.0,0.0,2.0,11.0,0.9,0.8,0.9,-0.3,-0.05,0.06,0.95,0.0,0.0,0.0
1752780315354,143.0,-3.0,-9.0,-1.0,0.0,9.0,-0.1,-1.3,-0.3,-0.31,-0.05,0.06,0.95,0.0,0.0,0.0
1752780315396,141.0,-0.0,-9.0,-0.0,0.0,8.0,-0.2,-0.8,-2.3,-0.33,-0.03,0.07,0.94,0.0,0.0,0.0
1752780315429,141.0,5.0,-9.0,2.0,1.0,9.0,0.8,0.1,-0.3,-0.34,0.01,0.09,0.94,0.0,0.0,0.0
1752780315475,140.0,6.0,-9.0,1.0,1.0,10.0,-0.2,-0.5,0.2,-0.34,0.03,0.09,0.94,0.0,0.0,0.0
1752780315713,139.0,8.0,-9.0,0.0,-1.0,11.0,-0.5,-0.9,1.2,-0.35,0.04,0.1,0.93,0.0,0.0,0.0
1752780315761,137.0,5.0,-0.0,1.0,-1.0,9.0,0.1,-1.2,-1.2,-0.37,0.04,0.02,0.93,0.0,0.0,0.0
1752780315796,137.0,6.0,0.0,3.0,0.0,11.0,2.3,0.7,0.5,-0.37,0.05,0.02,0.93,0.0,0.0,0.0
1752780315830,136.0,6.0,0.0,2.0,-0.0,10.0,0.4,-0.2,1.1,-0.37,0.05,0.02,0.93,0.0,0.0,0.0
1752780315981,136.0,6.0,0.0,0.0,0.0,10.0,-0.3,0.6,-0.3,-0.38,0.05,0.02,0.93,0.0,0.0,0.0
1752780316012,132.0,1.0,-0.0,1.0,0.0,9.0,0.7,0.4,-0.6,-0.4,0.01,0.01,0.91,0.0,0.0,0.0
1752780316054,133.0,-2.0,-0.0,-1.0,0.0,11.0,-0.4,0.1,1.2,-0.4,-0.02,-0.01,0.92,0.0,0.0,0.0
1752780316095,134.0,-3.0,-0.0,-1.0,0.0,9.0,0.3,0.6,-0.7,-0.39,-0.03,-0.01,0.92,0.0,0.0,0.0
1752780316141,134.0,-4.0,-1.0,-0.0,1.0,9.0,0.2,0.2,-0.3,-0.39,-0.03,-0.01,0.92,0.0,0.0,0.0
1752780316172,135.0,-4.0,-0.0,-1.0,-0.0,11.0,-0.1,-0.4,0.8,-0.38,-0.03,-0.01,0.92,0.0,0.0,0.0
1752780316218,135.0,-4.0,-1.0,-0.0,0.0,9.0,0.7,0.3,-0.5,-0.38,-0.03,-0.01,0.92,0.0,0.0,0.0
1752780316265,135.0,-4.0,-2.0,0.0,1.0,10.0,0.7,0.7,-0.3,-0.38,-0.04,-0.0,0.92,0.0,0.0,0.0
1752780316308,135.0,-4.0,-2.0,-1.0,1.0,9.0,-0.1,0.3,-0.5,-0.38,-0.04,0.0,0.92,0.0,0.0,0.0
1752780316352,135.0,-4.0,-2.0,-1.0,0.0,9.0,-0.0,0.2,-0.3,-0.38,-0.04,-0.0,0.92,0.0,0.0,0.0
1752780316381,135.0,-5.0,-1.0,-1.0,-0.0,10.0,-0.3,-0.2,0.1,-0.38,-0.04,-0.01,0.92,0.0,0.0,0.0
1752780316423,135.0,-5.0,-1.0,-1.0,0.0,10.0,-0.0,-0.0,0.0,-0.38,-0.04,-0.01,0.92,0.0,0.0,0.0
1752780316480,135.0,-5.0,-1.0,-0.0,0.0,10.0,0.3,0.3,-0.1,-0.38,-0.04,-0.01,0.92,0.0,0.0,0.0
1752780316724,136.0,-5.0,-2.0,-1.0,0.0,10.0,0.0,0.1,-0.1,-0.38,-0.04,-0.0,0.93,0.0,0.0,0.0
1752780316764,136.0,-5.0,-2.0,-1.0,1.0,10.0,0.2,0.2,-0.3,-0.38,-0.04,-0.0,0.93,0.0,0.0,0.0
1752780316808,136.0,-5.0,-2.0,-1.0,0.0,10.0,0.0,-0.0,-0.0,-0.38,-0.04,-0.0,0.92,0.0,0.0,0.0
1752780316858,136.0,-5.0,-2.0,-1.0,0.0,10.0,-0.0,0.0,-0.1,-0.38,-0.04,-0.0,0.92,0.0,0.0,0.0
1752780317109,136.0,-5.0,-2.0,-1.0,0.0,10.0,0.2,0.1,-0.0,-0.38,-0.04,-0.0,0.92,0.0,0.0,0.0
1752780317150,135.0,-5.0,-2.0,-1.0,0.0,10.0,0.1,0.0,-0.2,-0.38,-0.04,-0.0,0.92,0.0,0.0,0.0
1752780317189,135.0,-4.0,-2.0,-1.0,0.0,10.0,0.2,0.1,-0.2,-0.38,-0.04,-0.0,0.92,0.0,0.0,0.0
1752780317326,135.0,-5.0,-2.0,-1.0,0.0,10.0,0.2,0.1,-0.1,-0.38,-0.04,-0.0,0.92,0.0,0.0,0.0
1752780317376,136.0,-4.0,-1.0,-1.0,0.0,10.0,-0.0,0.0,-0.1,-0.38,-0.04,-0.0,0.92,0.0,0.0,0.0
1752780317726,135.0,-4.0,-1.0,-1.0,0.0,10.0,0.1,0.0,-0.1,-0.38,-0.04,-0.0,0.92,0.0,0.0,0.0
1752780317858,135.0,-4.0,-2.0,-1.0,0.0,10.0,0.1,0.1,-0.3,-0.38,-0.04,-0.0,0.92,0.0,0.0,0.0
1752780317904,135.0,-4.0,-2.0,-1.0,0.0,10.0,0.1,0.0,-0.1,-0.38,-0.04,-0.0,0.92,0.0,0.0,0.0
1752780317944,135.0,-4.0,-2.0,-1.0,0.0,10.0,0.1,0.0,-0.1,-0.38,-0.04,-0.0,0.92,0.0,0.0,0.0
1752780318082,135.0,-4.0,-2.0,-1.0,0.0,10.0,0.0,0.0,-0.2,-0.38,-0.04,-0.0,0.92,0.0,0.0,0.0
1752780318125,135.0,-4.0,-2.0,-1.0,0.0,10.0,0.1,0.1,-0.2,-0.38,-0.04,-0.0,0.92,0.0,0.0,0.0
1752780318161,135.0,-4.0,-2.0,-1.0,0.0,10.0,0.1,0.1,-0.2,-0.38,-0.04,-0.0,0.92,0.0,0.0,0.0
1752780318199,135.0,-4.0,-2.0,-1.0,0.0,10.0,0.1,0.1,-0.2,-0.38,-0.04,-0.0,0.92,0.0,0.0,0.0
1752780318235,135.0,-4.0,-2.0,-1.0,0.0,10.0,0.1,0.1,-0.2,-0.38,-0.04,-0.0,0.92,0.0,0.0,0.0
1752780318696,135.0,-4.0,-2.0,-1.0,0.0,10.0,0.1,0.1,-0.1,-0.38,-0.04,-0.0,0.92,0.0,0.0,0.0
1752780318730,135.0,-4.0,-2.0,-1.0,0.0,10.0,0.0,0.1,-0.2,-0.38,-0.04,-0.0,0.92,0.0,0.0,0.0
1752780318976,135.0,-4.0,-2.0,-1.0,0.0,10.0,-0.0,0.0,-0.1,-0.38,-0.04,-0.0,0.92,0.0,0.0,0.0
1752780319115,135.0,-4.0,-2.0,-1.0,0.0,10.0,0.0,0.1,-0.1,-0.38,-0.04,-0.0,0.92,0.0,0.0,0.0
1752780319152,135.0,-4.0,-2.0,-1.0,0.0,10.0,0.0,0.0,-0.1,-0.38,-0.04,-0.0,0.92,0.0,0.0,0.0
1752780319193,135.0,-4.0,-2.0,-1.0,0.0,10.0,0.0,0.1,-0.2,-0.38,-0.04,-0.0,0.92,0.0,0.0,0.0
1752780319234,135.0,-4.0,-2.0,-1.0,0.0,10.0,0.0,0.0,-0.2,-0.38,-0.04,-0.0,0.92,0.0,0.0,0.0
1752780319270,135.0,-4.0,-2.0,-1.0,0.0,10.0,-0.1,0.0,-0.1,-0.38,-0.04,-0.0,0.92,0.0,0.0,0.0
1752780319319,135.0,-4.0,-2.0,-1.0,0.0,10.0,-0.5,-0.2,0.1,-0.38,-0.04,-0.0,0.92,0.0,0.0,0.0
1752780319352,135.0,-5.0,-2.0,-1.0,1.0,10.0,0.5,0.3,0.6,-0.38,-0.05,0.0,0.92,0.0,0.0,0.0
1752780319399,135.0,-8.0,-3.0,-2.0,0.0,9.0,-0.8,-0.6,-0.7,-0.38,-0.08,-0.0,0.92,0.0,0.0,0.0
1752780319436,136.0,-12.0,-4.0,-2.0,0.0,9.0,0.0,-0.2,-0.2,-0.38,-0.11,-0.01,0.92,0.0,0.0,0.0
1752780319576,136.0,-16.0,-4.0,-4.0,1.0,9.0,0.2,-0.1,-0.4,-0.37,-0.13,-0.02,0.92,0.0,0.0,0.0
1752780319619,139.0,-24.0,-4.0,-4.0,0.0,8.0,0.2,-0.1,-0.5,-0.35,-0.21,-0.04,0.91,0.0,0.0,0.0
1752780319759,140.0,-34.0,-5.0,-6.0,0.0,8.0,-0.0,-0.1,-0.0,-0.34,-0.22,-0.05,0.91,0.0,0.0,0.0
1752780319803,141.0,-37.0,-7.0,-6.0,1.0,8.0,0.3,0.2,-0.2,-0.32,-0.31,-0.06,0.89,0.0,0.0,0.0
1752780319849,141.0,-40.0,-9.0,-6.0,2.0,8.0,0.1,0.2,0.4,-0.31,-0.34,-0.06,0.89,0.0,0.0,0.0
1752780319881,143.0,-45.0,-9.0,-5.0,-1.0,2.0,2.3,0.9,-0.8,-0.29,-0.38,-0.07,0.87,0.0,0.0,0.0
1752780319950,146.0,-56.0,-7.0,-7.0,0.0,5.0,0.8,-0.2,-0.6,-0.26,-0.45,-0.1,0.85,0.0,0.0,0.0
1752780319971,147.0,-59.0,-7.0,-8.0,1.0,5.0,0.5,-0.1,-0.2,-0.25,-0.49,-0.11,0.83,0.0,0.0,0.0
1752780320016,149.0,-64.0,-8.0,-9.0,1.0,4.0,0.2,0.1,-0.2,-0.23,-0.52,-0.11,0.82,0.0,0.0,0.0
1752780320053,150.0,-66.0,-8.0,-9.0,1.0,4.0,0.1,-0.1,0.2,-0.22,-0.53,-0.11,0.81,0.0,0.0,0.0
1752780320094,151.0,-68.0,-9.0,-9.0,0.0,4.0,0.3,-0.2,-0.1,-0.21,-0.55,-0.11,0.8,0.0,0.0,0.0
1752780320132,154.0,-72.0,-9.0,-9.0,0.0,3.0,0.4,-0.0,0.0,-0.18,-0.58,-0.1,0.79,0.0,0.0,0.0
1752780320280,157.0,-75.0,-11.0,-9.0,1.0,2.0,0.4,-0.1,-0.1,-0.16,-0.6,-0.09,0.78,0.0,0.0,0.0
1752780320322,159.0,-77.0,-30.0,-9.0,1.0,2.0,0.9,-0.4,-0.3,-0.14,-0.64,-0.05,0.76,0.0,0.0,0.0
1752780320566,142.0,-49.0,-16.0,-7.0,1.0,6.0,0.0,-0.6,-0.1,-0.3,-0.43,-0.04,0.85,0.0,0.0,0.0
1752780320606,141.0,-46.0,-14.0,-7.0,2.0,8.0,-0.1,0.0,0.4,-0.3,-0.4,-0.04,0.86,0.0,0.0,0.0
1752780320646,142.0,-42.0,-12.0,-7.0,1.0,6.0,0.4,1.0,0.6,-0.3,-0.37,-0.04,0.88,0.0,0.0,0.0
1752780320691,142.0,-37.0,-11.0,-5.0,2.0,7.0,1.4,-0.4,1.8,-0.3,-0.33,-0.03,0.89,0.0,0.0,0.0
1752780320834,141.0,-21.0,-6.0,-3.0,1.0,10.0,-0.1,0.1,0.4,-0.33,-0.19,-0.01,0.92,0.0,0.0,0.0
1752780321066,140.0,-18.0,-6.0,-2.0,1.0,9.0,-0.3,0.3,-0.1,-0.33,-0.16,-0.01,0.93,0.0,0.0,0.0
1752780321107,140.0,-16.0,-6.0,-3.0,1.0,9.0,-0.4,-0.5,-0.3,-0.34,-0.14,-0.0,0.93,0.0,0.0,0.0
1752780321149,142.0,-26.0,-7.0,-8.0,-3.0,7.0,6.1,-2.3,2.3,-0.31,-0.23,-0.02,0.92,0.0,0.0,0.0
1752780321183,148.0,-41.0,-9.0,-6.0,2.0,8.0,0.8,0.3,-0.5,-0.26,-0.35,-0.03,0.9,0.0,0.0,0.0
1752780321230,150.0,-51.0,-11.0,-8.0,1.0,6.0,-0.4,-0.3,0.4,-0.23,-0.42,-0.05,0.87,0.0,0.0,0.0
1752780321274,151.0,-55.0,-12.0,-8.0,2.0,6.0,1.2,0.3,-0.1,-0.22,-0.46,-0.05,0.86,0.0,0.0,0.0
1752780321324,152.0,-58.0,-12.0,-8.0,1.0,5.0,-0.0,-0.1,0.0,-0.21,-0.49,-0.05,0.85,0.0,0.0,0.0
1752780321366,153.0,-60.0,-13.0,-8.0,1.0,5.0,-0.3,0.0,1.0,-0.2,-0.5,-0.05,0.84,0.0,0.0,0.0
1752780321413,155.0,-64.0,-12.0,-8.0,1.0,4.0,0.2,-0.2,0.3,-0.18,-0.53,-0.06,0.83,0.0,0.0,0.0
1752780321447,158.0,-69.0,-9.0,-9.0,1.0,3.0,0.3,0.3,-0.3,-0.16,-0.56,-0.07,0.81,0.0,0.0,0.0
1752780321483,160.0,-73.0,-6.0,-9.0,-0.0,2.0,0.6,-0.6,-1.0,-0.14,-0.59,-0.08,0.79,0.0,0.0,0.0
1752780321533,161.0,-74.0,-5.0,-9.0,0.0,2.0,0.5,-0.3,-1.0,-0.13,-0.6,-0.08,0.79,0.0,0.0,0.0
1752780321568,161.0,-72.0,-6.0,-9.0,0.0,3.0,0.6,-0.2,-0.3,-0.14,-0.58,-0.08,0.8,0.0,0.0,0.0
1752780321608,157.0,-65.0,-8.0,-9.0,1.0,5.0,1.8,0.6,0.6,-0.17,-0.53,-0.07,0.83,0.0,0.0,0.0
1752780321647,153.0,-57.0,-8.0,-7.0,1.0,7.0,0.4,-0.0,0.9,-0.21,-0.47,-0.07,0.85,0.0,0.0,0.0
1752780321684,151.0,-50.0,-7.0,-5.0,-0.0,3.0,2.5,-0.2,-2.4,-0.22,-0.42,-0.06,0.88,0.0,0.0,0.0
1752780321731,149.0,-42.0,-6.0,-6.0,2.0,8.0,0.7,1.1,0.9,-0.24,-0.37,-0.06,0.89,0.0,0.0,0.0
1752780321768,148.0,-35.0,-6.0,-5.0,1.0,10.0,-0.1,0.5,1.3,-0.27,-0.3,-0.04,0.91,0.0,0.0,0.0
1752780321817,146.0,-29.0,-5.0,-5.0,0.0,8.0,0.2,0.2,0.6,-0.28,-0.25,-0.03,0.93,0.0,0.0,0.0
1752780321848,146.0,-25.0,-2.0,-5.0,-0.0,10.0,-0.8,-0.8,1.5,-0.28,-0.22,-0.05,0.93,0.0,0.0,0.0
1752780321884,145.0,-23.0,-2.0,-3.0,0.0,8.0,0.1,-0.1,-0.7,-0.29,-0.19,-0.04,0.94,0.0,0.0,0.0
1752780321957,144.0,-16.0,-1.0,-2.0,1.0,9.0,0.8,0.4,-0.8,-0.3,-0.14,-0.04,0.94,0.0,0.0,0.0
1752780322076,144.0,-15.0,-1.0,-2.0,0.0,10.0,-0.8,-0.7,-0.5,-0.31,-0.13,-0.03,0.94,0.0,0.0,0.0
1752780322123,140.0,-5.0,1.0,2.0,0.0,11.0,2.9,2.6,0.7,-0.34,-0.04,-0.02,0.94,0.0,0.0,0.0
1752780322261,137.0,9.0,2.0,2.0,-0.0,10.0,0.5,0.4,-0.2,-0.36,0.08,0.01,0.93,0.0,0.0,0.0
1752780322300,137.0,10.0,1.0,2.0,-0.0,10.0,-0.3,-0.2,0.0,-0.37,0.09,0.02,0.93,0.0,0.0,0.0
1752780322337,137.0,10.0,0.0,2.0,-0.0,10.0,0.0,-0.4,0.2,-0.37,0.08,0.03,0.93,0.0,0.0,0.0
1752780322381,137.0,9.0,-2.0,1.0,0.0,9.0,-0.4,-0.3,-0.8,-0.37,0.07,0.04,0.93,0.0,0.0,0.0
1752780322424,137.0,7.0,-3.0,1.0,1.0,10.0,0.1,0.6,0.3,-0.37,0.04,0.04,0.93,0.0,0.0,0.0
1752780322462,137.0,3.0,-3.0,3.0,1.0,10.0,2.7,-0.2,0.0,-0.37,0.02,0.04,0.93,0.0,0.0,0.0
1752780322498,137.0,9.0,-2.0,2.0,1.0,9.0,-1.7,0.8,-0.5,-0.37,0.06,0.05,0.93,0.0,0.0,0.0
1752780322542,136.0,20.0,-1.0,1.0,-0.0,7.0,-1.1,0.5,-1.1,-0.37,0.16,0.07,0.91,0.0,0.0,0.0
1752780322685,135.0,27.0,2.0,6.0,-1.0,8.0,0.2,-0.3,0.4,-0.37,0.21,0.08,0.9,0.0,0.0,0.0
1752780322827,132.0,46.0,5.0,7.0,-0.0,7.0,-0.2,-0.0,-0.3,-0.38,0.31,0.09,0.87,0.0,0.0,0.0
1752780323070,136.0,30.0,-8.0,5.0,1.0,8.0,1.0,0.0,-0.4,-0.36,0.22,0.15,0.89,0.0,0.0,0.0
1752780323111,139.0,23.0,-11.0,4.0,1.0,9.0,0.1,-0.2,-0.1,-0.35,0.15,0.15,0.91,0.0,0.0,0.0
1752780323154,141.0,17.0,-12.0,2.0,3.0,9.0,-0.5,0.1,-0.3,-0.33,0.11,0.14,0.93,0.0,0.0,0.0
1752780323187,143.0,9.0,-14.0,2.0,3.0,9.0,0.2,0.6,-0.3,-0.31,0.04,0.14,0.94,0.0,0.0,0.0
1752780323234,146.0,-0.0,-17.0,-0.0,3.0,10.0,0.0,-0.2,0.2,-0.29,-0.03,0.14,0.95,0.0,0.0,0.0
1752780323271,148.0,-5.0,-18.0,-1.0,3.0,9.0,-0.0,-0.1,-0.3,-0.27,-0.09,0.13,0.95,0.0,0.0,0.0
1752780323321,150.0,-11.0,-18.0,-2.0,3.0,9.0,0.6,0.2,0.3,-0.26,-0.14,0.12,0.95,0.0,0.0,0.0
1752780323353,151.0,-16.0,-19.0,-3.0,3.0,9.0,0.4,-0.2,-0.6,-0.24,-0.18,0.12,0.95,0.0,0.0,0.0
1752780323488,150.0,-14.0,-15.0,-1.0,2.0,9.0,0.7,0.2,0.4,-0.25,-0.15,0.09,0.95,0.0,0.0,0.0
1752780323538,147.0,-3.0,-11.0,1.0,2.0,10.0,1.0,0.0,0.4,-0.27,-0.07,0.09,0.96,0.0,0.0,0.0
1752780323788,119.0,66.0,31.0,8.0,-2.0,2.0,-1.5,-0.5,-0.9,-0.3,0.02,0.09,0.95,0.0,0.0,0.0
1752780323822,120.0,65.0,27.0,7.0,-1.0,4.0,-1.5,0.5,0.2,-0.42,0.53,0.17,0.72,0.0,0.0,0.0
1752780323863,124.0,60.0,15.0,11.0,-1.0,4.0,0.7,0.3,-0.2,-0.41,0.48,0.17,0.76,0.0,0.0,0.0
1752780323917,129.0,51.0,4.0,7.0,0.0,7.0,-0.5,0.8,0.3,-0.39,0.4,0.16,0.81,0.0,0.0,0.0
1752780323944,135.0,38.0,-5.0,5.0,1.0,9.0,0.3,0.3,0.5,-0.36,0.29,0.16,0.87,0.0,0.0,0.0
1752780323991,141.0,21.0,-12.0,4.0,2.0,9.0,0.1,0.1,0.0,-0.33,0.17,0.15,0.92,0.0,0.0,0.0
1752780324029,145.0,12.0,-15.0,1.0,3.0,9.0,-0.5,0.3,-0.2,-0.31,0.08,0.15,0.94,0.0,0.0,0.0
1752780324074,147.0,4.0,-17.0,0.0,3.0,9.0,0.0,-0.3,-0.3,-0.28,-0.0,0.15,0.95,0.0,0.0,0.0
1752780324111,148.0,-1.0,-17.0,0.0,3.0,9.0,0.5,0.1,-0.0,-0.28,-0.05,0.14,0.95,0.0,0.0,0.0
1752780324149,146.0,-1.0,-16.0,1.0,3.0,10.0,0.6,0.3,-0.1,-0.29,-0.05,0.13,0.95,0.0,0.0,0.0
1752780324189,143.0,7.0,-13.0,3.0,2.0,10.0,1.2,0.5,0.6,-0.31,0.02,0.13,0.94,0.0,0.0,0.0
1752780324233,138.0,23.0,-7.0,6.0,1.0,9.0,1.6,0.0,-0.1,-0.34,0.14,0.13,0.92,0.0,0.0,0.0
1752780324272,135.0,34.0,-2.0,5.0,0.0,9.0,-1.1,0.4,1.4,-0.37,0.27,0.13,0.88,0.0,0.0,0.0
1752780324312,129.0,46.0,5.0,8.0,-1.0,5.0,-0.1,0.4,-0.5,-0.4,0.37,0.14,0.83,0.0,0.0,0.0
1752780324350,123.0,55.0,13.0,7.0,-2.0,5.0,-1.5,-0.3,-0.3,-0.42,0.44,0.16,0.78,0.0,0.0,0.0
1752780324390,119.0,59.0,22.0,7.0,-2.0,4.0,-0.9,-0.7,-1.0,-0.44,0.49,0.16,0.74,0.0,0.0,0.0
1752780324540,126.0,41.0,7.0,6.0,-1.0,8.0,-0.1,-0.6,-0.1,-0.43,0.36,0.12,0.82,0.0,0.0,0.0
1752780324592,131.0,28.0,2.0,5.0,0.0,9.0,1.1,0.0,-0.3,-0.41,0.25,0.09,0.87,0.0,0.0,0.0
1752780324723,135.0,17.0,-3.0,1.0,1.0,10.0,0.7,0.0,0.0,-0.38,0.13,0.08,0.91,0.0,0.0,0.0
1752780324765,137.0,6.0,-4.0,2.0,0.0,10.0,1.5,-0.1,0.1,-0.36,0.04,0.05,0.93,0.0,0.0,0.0
1752780324804,133.0,13.0,1.0,5.0,-1.0,10.0,1.7,0.3,-0.0,-0.4,0.11,0.04,0.91,0.0,0.0,0.0
1752780324848,127.0,24.0,10.0,6.0,-1.0,9.0,1.0,0.5,-0.1,-0.44,0.23,0.02,0.87,0.0,0.0,0.0
1752780324900,119.0,38.0,22.0,7.0,-2.0,5.0,1.2,1.3,-1.9,-0.47,0.34,0.03,0.81,0.0,0.0,0.0
1752780324934,114.0,43.0,29.0,6.0,-4.0,6.0,-0.7,-0.4,-0.0,-0.49,0.42,0.04,0.76,0.0,0.0,0.0
1752780324965,108.0,49.0,38.0,6.0,-4.0,4.0,-1.8,-0.4,-0.6,-0.51,0.49,0.07,0.71,0.0,0.0,0.0
1752780325006,105.0,51.0,43.0,6.0,-5.0,4.0,-1.9,-0.6,-0.3,-0.52,0.52,0.07,0.68,0.0,0.0,0.0
1752780325049,106.0,51.0,43.0,6.0,-4.0,4.0,-1.3,-0.0,-0.8,-0.52,0.52,0.08,0.68,0.0,0.0,0.0
1752780325091,109.0,48.0,37.0,6.0,-4.0,5.0,-1.2,0.0,-0.2,-0.51,0.49,0.07,0.7,0.0,0.0,0.0
1752780325455,112.0,17.0,33.0,5.0,-11.0,17.0,1.4,-5.8,9.1,-0.52,0.25,-0.16,0.8,0.0,0.0,0.0
1752780325492,101.0,18.0,37.0,5.0,-11.0,13.0,5.5,-4.4,2.2,-0.58,0.33,-0.12,0.73,0.0,0.0,0.0
1752780325539,94.0,6.0,39.0,8.0,-9.0,8.0,7.1,-5.2,-0.2,-0.63,0.28,-0.18,0.7,0.0,0.0,0.0
1752780325576,89.0,-2.0,38.0,5.0,-6.0,9.0,5.7,-0.6,0.9,-0.68,0.22,-0.24,0.66,0.0,0.0,0.0
1752780325622,77.0,-11.0,27.0,1.0,-2.0,11.0,4.0,3.8,1.8,-0.76,0.12,-0.22,0.6,0.0,0.0,0.0
1752780325658,65.0,-24.0,18.0,-1.0,1.0,6.0,3.1,3.5,-2.1,-0.81,0.02,-0.24,0.53,0.0,0.0,0.0
1752780325708,61.0,-35.0,10.0,-0.0,1.0,6.0,5.7,2.0,-1.6,-0.82,-0.06,-0.29,0.49,0.0,0.0,0.0
1752780325742,54.0,-50.0,-1.0,4.0,2.0,-8.0,12.3,1.8,-13.8,-0.81,-0.17,-0.35,0.43,0.0,0.0,0.0
1752780325783,49.0,-62.0,-5.0,-10.0,-7.0,9.0,-0.9,-8.4,4.7,-0.78,-0.23,-0.46,0.36,0.0,0.0,0.0
1752780325823,43.0,-65.0,-28.0,-0.0,7.0,2.0,3.9,-0.6,-2.0,-0.77,-0.31,-0.47,0.31,0.0,0.0,0.0
1752780325857,24.0,-66.0,-102.0,3.0,6.0,-14.0,10.9,2.9,-12.0,-0.66,-0.43,-0.6,0.14,0.0,0.0,0.0
1752780325909,352.0,-43.0,-117.0,-3.0,8.0,-4.0,3.3,1.5,-0.0,-0.59,-0.49,-0.64,-0.02,0.0,0.0,0.0
1752780325945,338.0,-34.0,-116.0,-1.0,8.0,-5.0,4.1,0.9,-1.5,-0.56,-0.55,-0.61,-0.08,0.0,0.0,0.0
1752780325994,319.0,-22.0,-122.0,3.0,7.0,-13.0,5.3,-0.9,-6.9,-0.47,-0.6,-0.62,-0.18,0.0,0.0,0.0
1752780326018,297.0,-10.0,-129.0,1.0,10.0,-8.0,1.2,1.4,1.6,-0.37,-0.64,-0.63,-0.23,0.0,0.0,0.0
1752780326055,98.0,-6.0,-136.0,0.0,9.0,-4.0,2.1,1.6,0.7,-0.32,-0.7,-0.61,-0.21,0.0,0.0,0.0
1752780326097,97.0,-1.0,-139.0,5.0,5.0,-9.0,5.0,-1.4,-1.8,-0.27,-0.7,-0.62,-0.23,0.0,0.0,0.0
1752780326149,98.0,4.0,-142.0,9.0,8.0,-8.0,8.4,2.4,0.1,-0.23,-0.71,-0.62,-0.24,0.0,0.0,0.0
1752780326185,98.0,5.0,-144.0,14.0,15.0,-9.0,13.0,8.8,-1.1,-0.2,-0.72,-0.62,-0.24,0.0,0.0,0.0
1752780326219,95.0,2.0,-142.0,17.0,12.0,-11.0,18.9,4.6,-4.7,-0.23,-0.7,-0.64,-0.24,0.0,0.0,0.0
1752780326259,84.0,-7.0,-140.0,25.0,19.0,-18.0,30.1,16.1,-12.4,-0.27,-0.63,-0.7,-0.21,0.0,0.0,0.0
1752780326299,323.0,-26.0,-141.0,39.0,11.0,-6.0,46.2,2.9,6.7,-0.37,-0.51,-0.77,-0.12,0.0,0.0,0.0
1752780326455,64.0,-4.0,45.0,13.0,1.0,-3.0,15.2,9.5,-12.5,-0.78,0.3,-0.24,0.49,0.0,0.0,0.0
1752780326489,67.0,-6.0,43.0,10.0,-16.0,15.0,10.6,-9.5,7.3,-0.77,0.28,-0.28,0.5,0.0,0.0,0.0
1752780326540,66.0,1.0,39.0,4.0,-12.0,18.0,5.2,-1.5,5.0,-0.79,0.28,-0.17,0.52,0.0,0.0,0.0
1752780326588,62.0,-3.0,37.0,1.0,-4.0,8.0,2.4,2.1,0.4,-0.81,0.26,-0.19,0.49,0.0,0.0,0.0
1752780326622,59.0,-10.0,34.0,-1.0,-4.0,6.0,1.1,3.7,-2.0,-0.83,0.21,-0.22,0.47,0.0,0.0,0.0
1752780326660,59.0,-16.0,29.0,1.0,-7.0,9.0,3.7,-2.7,0.2,-0.83,0.14,-0.24,0.47,0.0,0.0,0.0
1752780326701,61.0,-19.0,26.0,-1.0,-6.0,10.0,2.2,-1.5,1.2,-0.83,0.1,-0.24,0.49,0.0,0.0,0.0
1752780326745,59.0,-22.0,27.0,-2.0,-4.0,9.0,2.3,0.0,0.6,-0.83,0.1,-0.27,0.47,0.0,0.0,0.0
1752780326796,58.0,-24.0,28.0,-2.0,-5.0,9.0,2.6,-0.5,1.4,-0.83,0.09,-0.29,0.46,0.0,0.0,0.0
1752780326821,57.0,-27.0,28.0,-2.0,-5.0,10.0,2.8,-1.8,2.4,-0.83,0.09,-0.32,0.45,0.0,0.0,0.0
1752780326865,58.0,-30.0,28.0,-2.0,-7.0,10.0,3.2,-3.4,2.6,-0.82,0.06,-0.33,0.45,0.0,0.0,0.0
1752780326916,59.0,-35.0,27.0,-3.0,-10.0,13.0,3.3,-6.0,5.6,-0.81,0.03,-0.36,0.46,0.0,0.0,0.0
1752780326946,60.0,-44.0,27.0,-4.0,-5.0,11.0,3.6,-1.8,5.0,-0.79,-0.02,-0.41,0.45,0.0,0.0,0.0
1752780326985,62.0,-56.0,24.0,-2.0,-4.0,9.0,7.3,-2.6,5.5,-0.74,-0.13,-0.48,0.45,0.0,0.0,0.0
1752780327020,75.0,-73.0,35.0,2.0,-9.0,10.0,12.5,-8.1,9.5,-0.62,-0.29,-0.55,0.48,0.0,0.0,0.0
1752780327061,83.0,-75.0,118.0,5.0,-2.0,3.0,14.4,2.3,4.6,-0.5,-0.36,-0.66,0.44,0.0,0.0,0.0
1752780327102,86.0,-54.0,163.0,8.0,-4.0,-4.0,15.6,-4.5,2.3,-0.34,-0.46,-0.75,0.32,0.0,0.0,0.0
1752780327154,64.0,-14.0,167.0,15.0,-9.0,-15.0,15.8,-7.3,-5.6,-0.09,-0.51,-0.83,0.21,0.0,0.0,0.0
1752780327290,70.0,5.0,172.0,6.0,4.0,-12.0,3.4,4.8,-2.6,0.08,-0.57,-0.82,0.03,0.0,0.0,0.0
1752780327322,97.0,14.0,174.0,7.0,3.0,-14.0,5.1,4.4,-4.6,0.12,-0.74,-0.66,-0.06,0.0,0.0,0.0
1752780327358,99.0,11.0,175.0,5.0,4.0,-10.0,3.5,4.9,0.0,0.1,-0.75,-0.65,-0.05,0.0,0.0,0.0
1752780327404,101.0,6.0,172.0,6.0,4.0,-11.0,6.7,5.0,-3.3,0.09,-0.77,-0.64,0.01,0.0,0.0,0.0
1752780327454,100.0,-4.0,168.0,14.0,6.0,-21.0,18.7,7.5,-8.9,0.07,-0.77,-0.64,0.07,0.0,0.0,0.0
1752780327489,89.0,-25.0,161.0,26.0,0.0,-3.0,36.2,2.8,9.6,-0.02,-0.71,-0.68,0.2,0.0,0.0,0.0
1752780327738,91.0,-15.0,19.0,4.0,-2.0,15.0,3.2,0.0,5.6,-0.69,0.02,-0.21,0.7,0.0,0.0,0.0
1752780327774,77.0,2.0,13.0,5.0,-2.0,9.0,4.6,0.3,-1.5,-0.78,0.1,-0.06,0.62,0.0,0.0,0.0
1752780327825,78.0,-4.0,11.0,5.0,-3.0,8.0,4.5,-0.2,-0.5,-0.77,0.06,-0.09,0.63,0.0,0.0,0.0
1752780327858,77.0,-6.0,9.0,2.0,-2.0,14.0,3.0,-1.0,6.8,-0.78,0.03,-0.09,0.62,0.0,0.0,0.0
1752780327907,76.0,-10.0,8.0,1.0,-1.0,16.0,3.5,0.1,6.8,-0.78,0.01,-0.1,0.62,0.0,0.0,0.0
1752780327937,75.0,-17.0,8.0,0.0,-1.0,16.0,4.2,0.6,7.1,-0.78,-0.04,-0.16,0.6,0.0,0.0,0.0
1752780327977,75.0,-28.0,9.0,1.0,-2.0,17.0,6.0,-0.5,9.2,-0.77,-0.1,-0.24,0.59,0.0,0.0,0.0
1752780328018,78.0,-43.0,11.0,2.0,-3.0,17.0,11.3,-2.4,10.6,-0.72,-0.17,-0.33,0.58,0.0,0.0,0.0
1752780328050,85.0,-63.0,21.0,6.0,-5.0,12.0,17.4,-2.2,6.7,-0.62,-0.28,-0.45,0.57,0.0,0.0,0.0
1752780328099,91.0,-77.0,124.0,9.0,-2.0,4.0,18.3,-0.3,6.2,-0.49,-0.4,-0.59,0.5,0.0,0.0,0.0
1752780328144,94.0,-44.0,167.0,11.0,-3.0,-3.0,17.2,-1.8,4.8,-0.32,-0.5,-0.74,0.32,0.0,0.0,0.0
1752780328184,71.0,-18.0,168.0,21.0,-9.0,-14.0,20.6,-7.2,-4.3,-0.07,-0.57,-0.8,0.17,0.0,0.0,0.0
1752780328230,75.0,17.0,166.0,19.0,-5.0,-21.0,11.8,-3.1,-9.7,0.19,-0.6,-0.78,-0.0,0.0,0.0,0.0
1752780328266,84.0,30.0,165.0,8.0,-1.0,-9.0,2.2,0.8,1.2,0.27,-0.64,-0.71,-0.09,0.0,0.0,0.0
1752780328403,92.0,29.0,161.0,11.0,-4.0,-8.0,5.4,1.3,-0.7,0.28,-0.69,-0.66,-0.08,0.0,0.0,0.0
1752780328454,105.0,26.0,147.0,18.0,-3.0,-11.0,14.2,1.6,-3.3,0.36,-0.74,-0.57,-0.04,0.0,0.0,0.0
1752780328488,106.0,20.0,147.0,23.0,-5.0,-12.0,21.0,-0.1,-3.8,0.32,-0.75,-0.57,0.02,0.0,0.0,0.0
1752780328530,103.0,-4.0,146.0,24.0,-9.0,-4.0,29.8,-0.9,8.3,0.21,-0.74,-0.6,0.22,0.0,0.0,0.0
1752780328569,180.0,-43.0,138.0,39.0,11.0,14.0,48.4,15.8,20.9,0.0,-0.72,-0.51,0.48,0.0,0.0,0.0
1752780328607,134.0,-70.0,35.0,39.0,5.0,39.0,44.3,0.1,32.4,-0.31,-0.49,-0.34,0.74,0.0,0.0,0.0
1752780328757,75.0,12.0,9.0,9.0,0.0,10.0,6.2,-1.1,-1.5,-0.79,0.13,0.05,0.59,0.0,0.0,0.0
1752780328897,80.0,4.0,8.0,4.0,-1.0,11.0,4.1,0.1,1.5,-0.77,0.09,-0.01,0.64,0.0,0.0,0.0
1752780328939,75.0,0.0,7.0,5.0,-0.0,17.0,4.6,0.5,6.9,-0.79,0.05,-0.03,0.61,0.0,0.0,0.0
1752780328978,73.0,0.0,4.0,4.0,-0.0,20.0,4.2,0.0,10.4,-0.8,0.03,-0.02,0.6,0.0,0.0,0.0
1752780329018,74.0,-8.0,0.0,5.0,-2.0,17.0,7.6,-2.4,7.9,-0.8,-0.04,-0.06,0.6,0.0,0.0,0.0
1752780329056,76.0,-22.0,-3.0,6.0,-2.0,18.0,11.3,-1.6,8.1,-0.77,-0.14,-0.13,0.6,0.0,0.0,0.0
1752780329312,99.0,-63.0,168.0,15.0,-6.0,-16.0,8.4,-3.8,-8.0,-0.39,-0.56,-0.58,0.43,0.0,0.0,0.0
1752780329345,88.0,36.0,156.0,11.0,-5.0,-11.0,4.4,0.0,-2.5,0.32,-0.65,-0.68,-0.09,0.0,0.0,0.0
1752780329495,18.0,41.0,138.0,13.0,-5.0,-9.0,6.9,0.4,-3.7,0.47,-0.64,-0.61,-0.07,0.0,0.0,0.0
1752780329529,12.0,38.0,138.0,13.0,-0.0,-8.0,6.3,4.3,1.3,0.45,-0.65,-0.61,-0.05,0.0,0.0,0.0
1752780329569,358.0,31.0,140.0,19.0,-4.0,-12.0,16.1,0.4,-3.8,0.41,-0.66,-0.63,0.01,0.0,0.0,0.0
