timestamp,quat_w,quat_x,quat_y,quat_z,acc_x,acc_y,acc_z,lin_acc_x,lin_acc_y,lin_acc_z,gyro_x,gyro_y,gyro_z,mag_x,mag_y,mag_z,euler_yaw,euler_pitch,euler_roll
1752000108839,1.0,0.0,0.0,0.0,0.0,0.0,9.81,0.0,0.0,0.0,0.0,0.0,0.0,0.0,0.0,0.0,0.0,0.0,0.0
1752000109073,1.0,0.0,0.0,0.0,0.0,0.0,9.81,0.0,0.0,0.0,0.0,0.0,0.0,34.56,-5.0,6.56,34.56,-5.0,6.56
1752000109390,1.0,0.0,0.0,0.0,0.0,0.0,9.81,0.0,0.0,0.0,0.0,0.0,0.0,20.19,-0.63,8.5,20.19,-0.63,8.5
1752000109707,1.0,0.0,0.0,0.0,0.0,0.0,9.81,0.0,0.0,0.0,0.0,0.0,0.0,17.44,-13.06,11.19,17.44,-13.06,11.19
1752000109943,1.0,0.0,0.0,0.0,0.0,0.0,9.81,0.0,0.0,0.0,0.0,0.0,0.0,28.5,-13.69,19.0,28.5,-13.69,19.0
1752000110059,1.0,0.0,0.0,0.0,0.0,0.0,9.81,0.0,0.0,0.0,0.0,0.0,0.0,35.81,-14.5,24.25,35.81,-14.5,24.25
1752000110176,1.0,0.0,0.0,0.0,0.0,0.0,9.81,0.0,0.0,0.0,0.0,0.0,0.0,43.81,-15.25,31.19,43.81,-15.25,31.19
1752000110510,1.0,0.0,0.0,0.0,0.0,0.0,9.81,0.0,0.0,0.0,0.0,0.0,0.0,64.25,-5.38,47.88,64.25,-5.38,47.88
1752000110627,1.0,0.0,0.0,0.0,0.0,0.0,9.81,0.0,0.0,0.0,0.0,0.0,0.0,67.38,-1.13,53.94,67.38,-1.13,53.94
1752000110945,1.0,0.0,0.0,0.0,0.0,0.0,9.81,0.0,0.0,0.0,0.0,0.0,0.0,58.25,13.06,72.31,58.25,13.06,72.31
1752000111062,1.0,0.0,0.0,0.0,0.0,0.0,9.81,0.0,0.0,0.0,0.0,0.0,0.0,50.69,16.81,79.56,50.69,16.81,79.56
1752000111179,1.0,0.0,0.0,0.0,0.0,0.0,9.81,0.0,0.0,0.0,0.0,0.0,0.0,44.0,18.69,85.0,44.0,18.69,85.0
1752000111312,1.0,0.0,0.0,0.0,0.0,0.0,9.81,0.0,0.0,0.0,0.0,0.0,0.0,207.06,17.5,87.19,207.06,17.5,87.19
1752000111429,1.0,0.0,0.0,0.0,0.0,0.0,9.81,0.0,0.0,0.0,0.0,0.0,0.0,205.5,17.5,89.75,205.5,17.5,89.75
1752000111746,1.0,0.0,0.0,0.0,0.0,0.0,9.81,0.0,0.0,0.0,0.0,0.0,0.0,195.19,15.38,96.69,195.19,15.38,96.69
1752000111863,1.0,0.0,0.0,0.0,0.0,0.0,9.81,0.0,0.0,0.0,0.0,0.0,0.0,190.13,13.69,98.88,190.13,13.69,98.88
1752000111981,1.0,0.0,0.0,0.0,0.0,0.0,9.81,0.0,0.0,0.0,0.0,0.0,0.0,185.56,12.13,100.38,185.56,12.13,100.38
1752000112116,1.0,0.0,0.0,0.0,0.0,0.0,9.81,0.0,0.0,0.0,0.0,0.0,0.0,180.44,10.13,101.38,180.44,10.13,101.38
1752000112235,1.0,0.0,0.0,0.0,0.0,0.0,9.81,0.0,0.0,0.0,0.0,0.0,0.0,177.06,9.06,101.5,177.06,9.06,101.5
1752000112354,1.0,0.0,0.0,0.0,0.0,0.0,9.81,0.0,0.0,0.0,0.0,0.0,0.0,173.88,8.06,101.0,173.88,8.06,101.0
1752000112491,1.0,0.0,0.0,0.0,0.0,0.0,9.81,0.0,0.0,0.0,0.0,0.0,0.0,171.31,6.94,99.75,171.31,6.94,99.75
1752000112714,1.0,0.0,0.0,0.0,0.0,0.0,9.81,0.0,0.0,0.0,0.0,0.0,0.0,166.44,5.56,97.19,166.44,5.56,97.19
1752000112826,1.0,0.0,0.0,0.0,0.0,0.0,9.81,0.0,0.0,0.0,0.0,0.0,0.0,164.38,4.75,95.19,164.38,4.75,95.19
1752000113058,1.0,0.0,0.0,0.0,0.0,0.0,9.81,0.0,0.0,0.0,0.0,0.0,0.0,158.25,3.0,89.19,158.25,3.0,89.19
1752000113175,1.0,0.0,0.0,0.0,0.0,0.0,9.81,0.0,0.0,0.0,0.0,0.0,0.0,155.44,1.44,87.19,155.44,1.44,87.19
1752000113409,1.0,0.0,0.0,0.0,0.0,0.0,9.81,0.0,0.0,0.0,0.0,0.0,0.0,150.25,-0.5,82.5,150.25,-0.5,82.5
1752000113626,1.0,0.0,0.0,0.0,0.0,0.0,9.81,0.0,0.0,0.0,0.0,0.0,0.0,146.69,-3.31,78.06,146.69,-3.31,78.06
1752000113743,1.0,0.0,0.0,0.0,0.0,0.0,9.81,0.0,0.0,0.0,0.0,0.0,0.0,147.06,-4.63,76.44,147.06,-4.63,76.44
1752000113860,1.0,0.0,0.0,0.0,0.0,0.0,9.81,0.0,0.0,0.0,0.0,0.0,0.0,150.44,-4.63,76.88,150.44,-4.63,76.88
1752000114194,1.0,0.0,0.0,0.0,0.0,0.0,9.81,0.0,0.0,0.0,0.0,0.0,0.0,190.75,3.63,67.13,190.75,3.63,67.13
1752000114311,1.0,0.0,0.0,0.0,0.0,0.0,9.81,0.0,0.0,0.0,0.0,0.0,0.0,179.88,-0.38,68.75,179.88,-0.38,68.75
1752000114445,1.0,0.0,0.0,0.0,0.0,0.0,9.81,0.0,0.0,0.0,0.0,0.0,0.0,162.56,-2.88,65.19,162.56,-2.88,65.19
1752000114661,1.0,0.0,0.0,0.0,0.0,0.0,9.81,0.0,0.0,0.0,0.0,0.0,0.0,194.63,-10.81,51.25,194.63,-10.81,51.25
1752000114778,1.0,0.0,0.0,0.0,0.0,0.0,9.81,0.0,0.0,0.0,0.0,0.0,0.0,197.19,-6.38,47.38,197.19,-6.38,47.38
1752000115013,1.0,0.0,0.0,0.0,0.0,0.0,9.81,0.0,0.0,0.0,0.0,0.0,0.0,166.63,-18.13,35.19,166.63,-18.13,35.19
1752000115130,1.0,0.0,0.0,0.0,0.0,0.0,9.81,0.0,0.0,0.0,0.0,0.0,0.0,163.63,-19.81,22.0,163.63,-19.81,22.0
1752000115347,1.0,0.0,0.0,0.0,0.0,0.0,9.81,0.0,0.0,0.0,0.0,0.0,0.0,172.38,-2.06,11.06,172.38,-2.06,11.06
1752000115481,1.0,0.0,0.0,0.0,0.0,0.0,9.81,0.0,0.0,0.0,0.0,0.0,0.0,185.88,2.94,12.69,185.88,2.94,12.69
1752000115598,1.0,0.0,0.0,0.0,0.0,0.0,9.81,0.0,0.0,0.0,0.0,0.0,0.0,198.81,2.25,9.56,198.81,2.25,9.56
1752000115714,1.0,0.0,0.0,0.0,0.0,0.0,9.81,0.0,0.0,0.0,0.0,0.0,0.0,214.75,1.0,5.19,214.75,1.0,5.19
1752000115933,1.0,0.0,0.0,0.0,0.0,0.0,9.81,0.0,0.0,0.0,0.0,0.0,0.0,232.5,0.31,2.75,232.5,0.31,2.75
1752000116063,1.0,0.0,0.0,0.0,0.0,0.0,9.81,0.0,0.0,0.0,0.0,0.0,0.0,232.5,0.25,2.75,232.5,0.25,2.75
1752000116183,1.0,0.0,0.0,0.0,0.0,0.0,9.81,0.0,0.0,0.0,0.0,0.0,0.0,232.5,0.25,2.75,232.5,0.25,2.75
1752000116300,1.0,0.0,0.0,0.0,0.0,0.0,9.81,0.0,0.0,0.0,0.0,0.0,0.0,232.5,0.25,2.81,232.5,0.25,2.81
1752000116433,1.0,0.0,0.0,0.0,0.0,0.0,9.81,0.0,0.0,0.0,0.0,0.0,0.0,232.5,0.25,2.81,232.5,0.25,2.81
1752000116550,1.0,0.0,0.0,0.0,0.0,0.0,9.81,0.0,0.0,0.0,0.0,0.0,0.0,232.5,0.19,2.81,232.5,0.19,2.81
1752000116684,1.0,0.0,0.0,0.0,0.0,0.0,9.81,0.0,0.0,0.0,0.0,0.0,0.0,232.5,0.19,2.81,232.5,0.19,2.81
1752000116801,1.0,0.0,0.0,0.0,0.0,0.0,9.81,0.0,0.0,0.0,0.0,0.0,0.0,232.5,0.19,2.81,232.5,0.19,2.81
1752000116919,1.0,0.0,0.0,0.0,0.0,0.0,9.81,0.0,0.0,0.0,0.0,0.0,0.0,232.5,0.19,2.81,232.5,0.19,2.81
1752000117052,1.0,0.0,0.0,0.0,0.0,0.0,9.81,0.0,0.0,0.0,0.0,0.0,0.0,232.5,0.19,2.81,232.5,0.19,2.81
1752000117269,1.0,0.0,0.0,0.0,0.0,0.0,9.81,0.0,0.0,0.0,0.0,0.0,0.0,232.5,0.19,2.81,232.5,0.19,2.81
1752000117386,1.0,0.0,0.0,0.0,0.0,0.0,9.81,0.0,0.0,0.0,0.0,0.0,0.0,232.5,0.19,2.81,232.5,0.19,2.81
1752000117520,1.0,0.0,0.0,0.0,0.0,0.0,9.81,0.0,0.0,0.0,0.0,0.0,0.0,232.5,0.19,2.81,232.5,0.19,2.81
1752000117737,1.0,0.0,0.0,0.0,0.0,0.0,9.81,0.0,0.0,0.0,0.0,0.0,0.0,232.5,0.19,2.81,232.5,0.19,2.81
1752000117955,1.0,0.0,0.0,0.0,0.0,0.0,9.81,0.0,0.0,0.0,0.0,0.0,0.0,232.75,0.19,2.81,232.75,0.19,2.81
1752000118072,1.0,0.0,0.0,0.0,0.0,0.0,9.81,0.0,0.0,0.0,0.0,0.0,0.0,232.75,0.19,2.81,232.75,0.19,2.81
1752000118206,1.0,0.0,0.0,0.0,0.0,0.0,9.81,0.0,0.0,0.0,0.0,0.0,0.0,233.88,0.06,2.06,233.88,0.06,2.06
1752000118423,1.0,0.0,0.0,0.0,0.0,0.0,9.81,0.0,0.0,0.0,0.0,0.0,0.0,233.94,12.31,2.63,233.94,12.31,2.63
1752000118640,1.0,0.0,0.0,0.0,0.0,0.0,9.81,0.0,0.0,0.0,0.0,0.0,0.0,230.31,23.56,1.19,230.31,23.56,1.19
1752000118773,1.0,0.0,0.0,0.0,0.0,0.0,9.81,0.0,0.0,0.0,0.0,0.0,0.0,230.94,24.56,2.25,230.94,24.56,2.25
1752000118890,1.0,0.0,0.0,0.0,0.0,0.0,9.81,0.0,0.0,0.0,0.0,0.0,0.0,232.5,22.0,2.75,232.5,22.0,2.75
1752000119009,1.0,0.0,0.0,0.0,0.0,0.0,9.81,0.0,0.0,0.0,0.0,0.0,0.0,235.5,26.13,3.69,235.5,26.13,3.69
1752000119233,1.0,0.0,0.0,0.0,0.0,0.0,9.81,0.0,0.0,0.0,0.0,0.0,0.0,238.75,32.06,3.5,238.75,32.06,3.5
1752000119344,1.0,0.0,0.0,0.0,0.0,0.0,9.81,0.0,0.0,0.0,0.0,0.0,0.0,240.5,30.94,5.31,240.5,30.94,5.31
1752000119484,1.0,0.0,0.0,0.0,0.0,0.0,9.81,0.0,0.0,0.0,0.0,0.0,0.0,243.06,28.31,5.44,243.06,28.31,5.44
1752000119593,1.0,0.0,0.0,0.0,0.0,0.0,9.81,0.0,0.0,0.0,0.0,0.0,0.0,245.75,27.5,6.06,245.75,27.5,6.06
1752000119809,1.0,0.0,0.0,0.0,0.0,0.0,9.81,0.0,0.0,0.0,0.0,0.0,0.0,246.38,28.06,4.0,246.38,28.06,4.0
1752000119940,1.0,0.0,0.0,0.0,0.0,0.0,9.81,0.0,0.0,0.0,0.0,0.0,0.0,246.56,28.0,4.44,246.56,28.0,4.44
1752000120158,1.0,0.0,0.0,0.0,0.0,0.0,9.81,0.0,0.0,0.0,0.0,0.0,0.0,245.81,27.69,4.75,245.81,27.69,4.75
1752000120291,1.0,0.0,0.0,0.0,0.0,0.0,9.81,0.0,0.0,0.0,0.0,0.0,0.0,245.81,27.31,4.69,245.81,27.31,4.69
1752000120508,1.0,0.0,0.0,0.0,0.0,0.0,9.81,0.0,0.0,0.0,0.0,0.0,0.0,245.81,27.19,4.38,245.81,27.19,4.38
1752000120625,1.0,0.0,0.0,0.0,0.0,0.0,9.81,0.0,0.0,0.0,0.0,0.0,0.0,244.88,26.63,4.75,244.88,26.63,4.75
1752000120742,1.0,0.0,0.0,0.0,0.0,0.0,9.81,0.0,0.0,0.0,0.0,0.0,0.0,244.88,26.25,5.19,244.88,26.25,5.19
1752000120876,1.0,0.0,0.0,0.0,0.0,0.0,9.81,0.0,0.0,0.0,0.0,0.0,0.0,244.81,26.31,5.31,244.81,26.31,5.31
1752000121093,1.0,0.0,0.0,0.0,0.0,0.0,9.81,0.0,0.0,0.0,0.0,0.0,0.0,242.81,26.19,5.19,242.81,26.19,5.19
1752000121227,1.0,0.0,0.0,0.0,0.0,0.0,9.81,0.0,0.0,0.0,0.0,0.0,0.0,241.31,25.75,5.31,241.31,25.75,5.31
1752000121544,1.0,0.0,0.0,0.0,0.0,0.0,9.81,0.0,0.0,0.0,0.0,0.0,0.0,236.88,25.06,6.13,236.88,25.06,6.13
1752000121677,1.0,0.0,0.0,0.0,0.0,0.0,9.81,0.0,0.0,0.0,0.0,0.0,0.0,234.38,24.75,6.56,234.38,24.75,6.56
1752000121794,1.0,0.0,0.0,0.0,0.0,0.0,9.81,0.0,0.0,0.0,0.0,0.0,0.0,231.69,24.13,6.88,231.69,24.13,6.88
1752000121929,1.0,0.0,0.0,0.0,0.0,0.0,9.81,0.0,0.0,0.0,0.0,0.0,0.0,228.75,23.31,7.38,228.75,23.31,7.38
1752000122046,1.0,0.0,0.0,0.0,0.0,0.0,9.81,0.0,0.0,0.0,0.0,0.0,0.0,226.31,22.31,7.88,226.31,22.31,7.88
1752000122179,1.0,0.0,0.0,0.0,0.0,0.0,9.81,0.0,0.0,0.0,0.0,0.0,0.0,223.69,21.19,7.75,223.69,21.19,7.75
1752000122296,1.0,0.0,0.0,0.0,0.0,0.0,9.81,0.0,0.0,0.0,0.0,0.0,0.0,221.31,20.44,8.0,221.31,20.44,8.0
1752000122430,1.0,0.0,0.0,0.0,0.0,0.0,9.81,0.0,0.0,0.0,0.0,0.0,0.0,218.81,19.75,8.06,218.81,19.75,8.06
1752000122663,1.0,0.0,0.0,0.0,0.0,0.0,9.81,0.0,0.0,0.0,0.0,0.0,0.0,213.94,18.06,9.0,213.94,18.06,9.0
1752000122781,1.0,0.0,0.0,0.0,0.0,0.0,9.81,0.0,0.0,0.0,0.0,0.0,0.0,211.38,17.38,9.5,211.38,17.38,9.5
1752000122898,1.0,0.0,0.0,0.0,0.0,0.0,9.81,0.0,0.0,0.0,0.0,0.0,0.0,208.75,16.56,10.31,208.75,16.56,10.31
1752000123032,1.0,0.0,0.0,0.0,0.0,0.0,9.81,0.0,0.0,0.0,0.0,0.0,0.0,206.38,15.75,10.63,206.38,15.75,10.63
1752000123149,1.0,0.0,0.0,0.0,0.0,0.0,9.81,0.0,0.0,0.0,0.0,0.0,0.0,203.81,15.31,10.31,203.81,15.31,10.31
1752000123282,1.0,0.0,0.0,0.0,0.0,0.0,9.81,0.0,0.0,0.0,0.0,0.0,0.0,201.69,15.56,10.06,201.69,15.56,10.06
1752000123416,1.0,0.0,0.0,0.0,0.0,0.0,9.81,0.0,0.0,0.0,0.0,0.0,0.0,199.5,15.13,9.94,199.5,15.13,9.94
1752000123533,1.0,0.0,0.0,0.0,0.0,0.0,9.81,0.0,0.0,0.0,0.0,0.0,0.0,197.5,14.63,9.94,197.5,14.63,9.94
1752000123649,1.0,0.0,0.0,0.0,0.0,0.0,9.81,0.0,0.0,0.0,0.0,0.0,0.0,195.31,13.94,10.13,195.31,13.94,10.13
1752000123783,1.0,0.0,0.0,0.0,0.0,0.0,9.81,0.0,0.0,0.0,0.0,0.0,0.0,193.06,13.69,10.19,193.06,13.69,10.19
1752000124001,1.0,0.0,0.0,0.0,0.0,0.0,9.81,0.0,0.0,0.0,0.0,0.0,0.0,188.63,13.75,10.13,188.63,13.75,10.13
1752000124135,1.0,0.0,0.0,0.0,0.0,0.0,9.81,0.0,0.0,0.0,0.0,0.0,0.0,186.19,13.5,9.88,186.19,13.5,9.88
1752000124252,1.0,0.0,0.0,0.0,0.0,0.0,9.81,0.0,0.0,0.0,0.0,0.0,0.0,184.19,13.38,10.19,184.19,13.38,10.19
1752000124386,1.0,0.0,0.0,0.0,0.0,0.0,9.81,0.0,0.0,0.0,0.0,0.0,0.0,182.38,13.13,10.38,182.38,13.13,10.38
1752000124502,1.0,0.0,0.0,0.0,0.0,0.0,9.81,0.0,0.0,0.0,0.0,0.0,0.0,180.75,12.63,10.56,180.75,12.63,10.56
1752000124636,1.0,0.0,0.0,0.0,0.0,0.0,9.81,0.0,0.0,0.0,0.0,0.0,0.0,179.19,12.44,10.88,179.19,12.44,10.88
1752000124753,1.0,0.0,0.0,0.0,0.0,0.0,9.81,0.0,0.0,0.0,0.0,0.0,0.0,178.44,12.25,11.06,178.44,12.25,11.06
1752000124869,1.0,0.0,0.0,0.0,0.0,0.0,9.81,0.0,0.0,0.0,0.0,0.0,0.0,179.19,12.25,11.38,179.19,12.25,11.38
1752000124987,1.0,0.0,0.0,0.0,0.0,0.0,9.81,0.0,0.0,0.0,0.0,0.0,0.0,180.31,12.56,11.31,180.31,12.56,11.31
1752000125123,1.0,0.0,0.0,0.0,0.0,0.0,9.81,0.0,0.0,0.0,0.0,0.0,0.0,181.69,13.06,11.5,181.69,13.06,11.5
1752000125242,1.0,0.0,0.0,0.0,0.0,0.0,9.81,0.0,0.0,0.0,0.0,0.0,0.0,183.0,13.38,11.63,183.0,13.38,11.63
1752000125362,1.0,0.0,0.0,0.0,0.0,0.0,9.81,0.0,0.0,0.0,0.0,0.0,0.0,185.19,13.13,11.19,185.19,13.13,11.19
1752000125499,1.0,0.0,0.0,0.0,0.0,0.0,9.81,0.0,0.0,0.0,0.0,0.0,0.0,188.31,12.94,10.63,188.31,12.94,10.63
1752000125723,1.0,0.0,0.0,0.0,0.0,0.0,9.81,0.0,0.0,0.0,0.0,0.0,0.0,194.06,14.56,10.25,194.06,14.56,10.25
1752000125947,1.0,0.0,0.0,0.0,0.0,0.0,9.81,0.0,0.0,0.0,0.0,0.0,0.0,200.0,16.13,10.5,200.0,16.13,10.5
1752000126164,1.0,0.0,0.0,0.0,0.0,0.0,9.81,0.0,0.0,0.0,0.0,0.0,0.0,206.88,16.63,9.81,206.88,16.63,9.81
1752000126297,1.0,0.0,0.0,0.0,0.0,0.0,9.81,0.0,0.0,0.0,0.0,0.0,0.0,210.56,17.88,9.44,210.56,17.88,9.44
1752000126414,1.0,0.0,0.0,0.0,0.0,0.0,9.81,0.0,0.0,0.0,0.0,0.0,0.0,213.56,19.06,8.94,213.56,19.06,8.94
1752000126648,1.0,0.0,0.0,0.0,0.0,0.0,9.81,0.0,0.0,0.0,0.0,0.0,0.0,219.06,20.81,7.94,219.06,20.81,7.94
1752000126765,1.0,0.0,0.0,0.0,0.0,0.0,9.81,0.0,0.0,0.0,0.0,0.0,0.0,221.75,21.25,7.38,221.75,21.25,7.38
1752000126882,1.0,0.0,0.0,0.0,0.0,0.0,9.81,0.0,0.0,0.0,0.0,0.0,0.0,224.63,22.0,6.44,224.63,22.0,6.44
1752000127017,1.0,0.0,0.0,0.0,0.0,0.0,9.81,0.0,0.0,0.0,0.0,0.0,0.0,227.19,22.38,5.5,227.19,22.38,5.5
1752000127133,1.0,0.0,0.0,0.0,0.0,0.0,9.81,0.0,0.0,0.0,0.0,0.0,0.0,229.56,22.56,4.31,229.56,22.56,4.31
1752000127266,1.0,0.0,0.0,0.0,0.0,0.0,9.81,0.0,0.0,0.0,0.0,0.0,0.0,231.63,22.31,3.88,231.63,22.31,3.88
1752000127382,1.0,0.0,0.0,0.0,0.0,0.0,9.81,0.0,0.0,0.0,0.0,0.0,0.0,233.63,22.25,3.44,233.63,22.25,3.44
1752000127515,1.0,0.0,0.0,0.0,0.0,0.0,9.81,0.0,0.0,0.0,0.0,0.0,0.0,235.31,22.5,3.0,235.31,22.5,3.0
1752000127647,1.0,0.0,0.0,0.0,0.0,0.0,9.81,0.0,0.0,0.0,0.0,0.0,0.0,236.75,22.81,2.56,236.75,22.81,2.56
1752000127862,1.0,0.0,0.0,0.0,0.0,0.0,9.81,0.0,0.0,0.0,0.0,0.0,0.0,238.25,23.19,1.88,238.25,23.19,1.88
1752000127997,1.0,0.0,0.0,0.0,0.0,0.0,9.81,0.0,0.0,0.0,0.0,0.0,0.0,238.56,23.0,1.75,238.56,23.0,1.75
1752000128114,1.0,0.0,0.0,0.0,0.0,0.0,9.81,0.0,0.0,0.0,0.0,0.0,0.0,238.81,23.13,1.69,238.81,23.13,1.69
1752000128248,1.0,0.0,0.0,0.0,0.0,0.0,9.81,0.0,0.0,0.0,0.0,0.0,0.0,239.19,23.19,1.56,239.19,23.19,1.56
1752000128356,1.0,0.0,0.0,0.0,0.0,0.0,9.81,0.0,0.0,0.0,0.0,0.0,0.0,239.63,23.44,1.13,239.63,23.44,1.13
1752000128499,1.0,0.0,0.0,0.0,0.0,0.0,9.81,0.0,0.0,0.0,0.0,0.0,0.0,239.56,23.38,0.81,239.56,23.38,0.81
1752000128615,1.0,0.0,0.0,0.0,0.0,0.0,9.81,0.0,0.0,0.0,0.0,0.0,0.0,239.63,23.31,0.81,239.63,23.31,0.81
1752000128737,1.0,0.0,0.0,0.0,0.0,0.0,9.81,0.0,0.0,0.0,0.0,0.0,0.0,239.81,23.25,0.38,239.81,23.25,0.38
1752000128856,1.0,0.0,0.0,0.0,0.0,0.0,9.81,0.0,0.0,0.0,0.0,0.0,0.0,239.69,23.69,0.44,239.69,23.69,0.44
1752000128975,1.0,0.0,0.0,0.0,0.0,0.0,9.81,0.0,0.0,0.0,0.0,0.0,0.0,236.63,24.94,1.31,236.63,24.94,1.31
1752000129093,1.0,0.0,0.0,0.0,0.0,0.0,9.81,0.0,0.0,0.0,0.0,0.0,0.0,229.56,25.63,2.44,229.56,25.63,2.44
1752000129226,1.0,0.0,0.0,0.0,0.0,0.0,9.81,0.0,0.0,0.0,0.0,0.0,0.0,220.25,23.69,5.19,220.25,23.69,5.19
1752000129343,1.0,0.0,0.0,0.0,0.0,0.0,9.81,0.0,0.0,0.0,0.0,0.0,0.0,211.13,22.19,8.5,211.13,22.19,8.5
1752000129460,1.0,0.0,0.0,0.0,0.0,0.0,9.81,0.0,0.0,0.0,0.0,0.0,0.0,201.69,21.44,10.13,201.69,21.44,10.13
1752000129694,1.0,0.0,0.0,0.0,0.0,0.0,9.81,0.0,0.0,0.0,0.0,0.0,0.0,181.44,18.5,15.31,181.44,18.5,15.31
1752000130009,1.0,0.0,0.0,0.0,0.0,0.0,9.81,0.0,0.0,0.0,0.0,0.0,0.0,151.5,11.63,23.56,151.5,11.63,23.56
1752000130129,1.0,0.0,0.0,0.0,0.0,0.0,9.81,0.0,0.0,0.0,0.0,0.0,0.0,150.0,9.75,25.63,150.0,9.75,25.63
1752000130246,1.0,0.0,0.0,0.0,0.0,0.0,9.81,0.0,0.0,0.0,0.0,0.0,0.0,166.06,11.94,32.88,166.06,11.94,32.88
1752000130480,1.0,0.0,0.0,0.0,0.0,0.0,9.81,0.0,0.0,0.0,0.0,0.0,0.0,207.69,31.31,31.69,207.69,31.31,31.69
1752000130697,1.0,0.0,0.0,0.0,0.0,0.0,9.81,0.0,0.0,0.0,0.0,0.0,0.0,224.88,39.75,23.44,224.88,39.75,23.44
1752000130814,1.0,0.0,0.0,0.0,0.0,0.0,9.81,0.0,0.0,0.0,0.0,0.0,0.0,215.0,35.56,31.44,215.0,35.56,31.44
1752000131032,1.0,0.0,0.0,0.0,0.0,0.0,9.81,0.0,0.0,0.0,0.0,0.0,0.0,179.25,15.13,41.75,179.25,15.13,41.75
1752000131166,1.0,0.0,0.0,0.0,0.0,0.0,9.81,0.0,0.0,0.0,0.0,0.0,0.0,157.56,1.88,40.63,157.56,1.88,40.63
1752000131282,1.0,0.0,0.0,0.0,0.0,0.0,9.81,0.0,0.0,0.0,0.0,0.0,0.0,142.13,-4.94,34.63,142.13,-4.94,34.63
1752000131416,1.0,0.0,0.0,0.0,0.0,0.0,9.81,0.0,0.0,0.0,0.0,0.0,0.0,140.5,-3.63,33.56,140.5,-3.63,33.56
1752000131516,1.0,0.0,0.0,0.0,0.0,0.0,9.81,0.0,0.0,0.0,0.0,0.0,0.0,150.13,0.13,34.38,150.13,0.13,34.38
1752000131650,1.0,0.0,0.0,0.0,0.0,0.0,9.81,0.0,0.0,0.0,0.0,0.0,0.0,164.0,5.63,34.94,164.0,5.63,34.94
1752000131767,1.0,0.0,0.0,0.0,0.0,0.0,9.81,0.0,0.0,0.0,0.0,0.0,0.0,176.94,10.5,34.31,176.94,10.5,34.31
1752000132086,1.0,0.0,0.0,0.0,0.0,0.0,9.81,0.0,0.0,0.0,0.0,0.0,0.0,217.75,27.31,25.69,217.75,27.31,25.69
1752000132203,1.0,0.0,0.0,0.0,0.0,0.0,9.81,0.0,0.0,0.0,0.0,0.0,0.0,227.5,31.19,19.75,227.5,31.19,19.75
1752000132521,1.0,0.0,0.0,0.0,0.0,0.0,9.81,0.0,0.0,0.0,0.0,0.0,0.0,216.81,29.06,23.81,216.81,29.06,23.81
1752000132654,1.0,0.0,0.0,0.0,0.0,0.0,9.81,0.0,0.0,0.0,0.0,0.0,0.0,209.31,25.5,28.31,209.31,25.5,28.31
1752000132771,1.0,0.0,0.0,0.0,0.0,0.0,9.81,0.0,0.0,0.0,0.0,0.0,0.0,199.06,21.88,30.0,199.06,21.88,30.0
1752000133089,1.0,0.0,0.0,0.0,0.0,0.0,9.81,0.0,0.0,0.0,0.0,0.0,0.0,177.19,10.94,30.56,177.19,10.94,30.56
1752000133207,1.0,0.0,0.0,0.0,0.0,0.0,9.81,0.0,0.0,0.0,0.0,0.0,0.0,170.06,7.31,29.06,170.06,7.31,29.06
1752000133341,1.0,0.0,0.0,0.0,0.0,0.0,9.81,0.0,0.0,0.0,0.0,0.0,0.0,166.25,5.25,27.63,166.25,5.25,27.63
1752000133559,1.0,0.0,0.0,0.0,0.0,0.0,9.81,0.0,0.0,0.0,0.0,0.0,0.0,181.88,11.25,27.19,181.88,11.25,27.19
1752000133676,1.0,0.0,0.0,0.0,0.0,0.0,9.81,0.0,0.0,0.0,0.0,0.0,0.0,195.94,15.94,27.44,195.94,15.94,27.44
1752000133809,1.0,0.0,0.0,0.0,0.0,0.0,9.81,0.0,0.0,0.0,0.0,0.0,0.0,209.94,20.25,23.5,209.94,20.25,23.5
1752000133927,1.0,0.0,0.0,0.0,0.0,0.0,9.81,0.0,0.0,0.0,0.0,0.0,0.0,221.56,23.63,19.44,221.56,23.63,19.44
1752000134045,1.0,0.0,0.0,0.0,0.0,0.0,9.81,0.0,0.0,0.0,0.0,0.0,0.0,230.88,25.88,16.06,230.88,25.88,16.06
1752000134179,1.0,0.0,0.0,0.0,0.0,0.0,9.81,0.0,0.0,0.0,0.0,0.0,0.0,236.13,26.25,15.63,236.13,26.25,15.63
1752000134280,1.0,0.0,0.0,0.0,0.0,0.0,9.81,0.0,0.0,0.0,0.0,0.0,0.0,235.31,26.25,14.75,235.31,26.25,14.75
1752000134415,1.0,0.0,0.0,0.0,0.0,0.0,9.81,0.0,0.0,0.0,0.0,0.0,0.0,226.56,24.69,18.44,226.56,24.69,18.44
1752000134533,1.0,0.0,0.0,0.0,0.0,0.0,9.81,0.0,0.0,0.0,0.0,0.0,0.0,217.81,21.69,23.13,217.81,21.69,23.13
1752000134651,1.0,0.0,0.0,0.0,0.0,0.0,9.81,0.0,0.0,0.0,0.0,0.0,0.0,206.5,18.88,24.06,206.5,18.88,24.06
1752000134973,1.0,0.0,0.0,0.0,0.0,0.0,9.81,0.0,0.0,0.0,0.0,0.0,0.0,180.0,7.25,24.63,180.0,7.25,24.63
1752000135207,1.0,0.0,0.0,0.0,0.0,0.0,9.81,0.0,0.0,0.0,0.0,0.0,0.0,176.0,4.5,23.5,176.0,4.5,23.5
1752000135425,1.0,0.0,0.0,0.0,0.0,0.0,9.81,0.0,0.0,0.0,0.0,0.0,0.0,198.06,13.63,25.25,198.06,13.63,25.25
1752000135542,1.0,0.0,0.0,0.0,0.0,0.0,9.81,0.0,0.0,0.0,0.0,0.0,0.0,214.44,20.75,22.81,214.44,20.75,22.81
1752000135675,1.0,0.0,0.0,0.0,0.0,0.0,9.81,0.0,0.0,0.0,0.0,0.0,0.0,224.19,23.56,20.13,224.19,23.56,20.13
1752000135792,1.0,0.0,0.0,0.0,0.0,0.0,9.81,0.0,0.0,0.0,0.0,0.0,0.0,230.44,23.94,18.31,230.44,23.94,18.31
1752000135926,1.0,0.0,0.0,0.0,0.0,0.0,9.81,0.0,0.0,0.0,0.0,0.0,0.0,229.88,24.19,18.13,229.88,24.19,18.13
1752000136028,1.0,0.0,0.0,0.0,0.0,0.0,9.81,0.0,0.0,0.0,0.0,0.0,0.0,227.56,23.06,19.5,227.56,23.06,19.5
1752000136353,1.0,0.0,0.0,0.0,0.0,0.0,9.81,0.0,0.0,0.0,0.0,0.0,0.0,205.31,16.06,27.25,205.31,16.06,27.25
1752000136482,1.0,0.0,0.0,0.0,0.0,0.0,9.81,0.0,0.0,0.0,0.0,0.0,0.0,195.31,12.06,28.69,195.31,12.06,28.69
1752000136802,1.0,0.0,0.0,0.0,0.0,0.0,9.81,0.0,0.0,0.0,0.0,0.0,0.0,176.94,5.31,25.5,176.94,5.31,25.5
1752000136932,1.0,0.0,0.0,0.0,0.0,0.0,9.81,0.0,0.0,0.0,0.0,0.0,0.0,176.25,4.56,25.13,176.25,4.56,25.13
1752000137049,1.0,0.0,0.0,0.0,0.0,0.0,9.81,0.0,0.0,0.0,0.0,0.0,0.0,182.31,6.0,26.88,182.31,6.0,26.88
1752000137166,1.0,0.0,0.0,0.0,0.0,0.0,9.81,0.0,0.0,0.0,0.0,0.0,0.0,194.38,10.06,27.44,194.38,10.06,27.44
1752000137299,1.0,0.0,0.0,0.0,0.0,0.0,9.81,0.0,0.0,0.0,0.0,0.0,0.0,207.75,14.75,27.63,207.75,14.75,27.63
1752000137417,1.0,0.0,0.0,0.0,0.0,0.0,9.81,0.0,0.0,0.0,0.0,0.0,0.0,220.38,20.19,25.31,220.38,20.19,25.31
1752000137534,1.0,0.0,0.0,0.0,0.0,0.0,9.81,0.0,0.0,0.0,0.0,0.0,0.0,229.75,23.81,23.06,229.75,23.81,23.06
1752000137668,1.0,0.0,0.0,0.0,0.0,0.0,9.81,0.0,0.0,0.0,0.0,0.0,0.0,233.94,24.56,22.31,233.94,24.56,22.31
1752000137785,1.0,0.0,0.0,0.0,0.0,0.0,9.81,0.0,0.0,0.0,0.0,0.0,0.0,231.13,23.69,22.88,231.13,23.69,22.88
1752000137919,1.0,0.0,0.0,0.0,0.0,0.0,9.81,0.0,0.0,0.0,0.0,0.0,0.0,225.19,21.25,24.25,225.19,21.25,24.25
1752000138038,1.0,0.0,0.0,0.0,0.0,0.0,9.81,0.0,0.0,0.0,0.0,0.0,0.0,215.75,17.13,25.81,215.75,17.13,25.81
1752000138257,1.0,0.0,0.0,0.0,0.0,0.0,9.81,0.0,0.0,0.0,0.0,0.0,0.0,195.56,10.5,28.63,195.56,10.5,28.63
1752000138376,1.0,0.0,0.0,0.0,0.0,0.0,9.81,0.0,0.0,0.0,0.0,0.0,0.0,186.38,6.38,28.19,186.38,6.38,28.19
1752000138513,1.0,0.0,0.0,0.0,0.0,0.0,9.81,0.0,0.0,0.0,0.0,0.0,0.0,180.13,3.63,26.75,180.13,3.63,26.75
1752000138632,1.0,0.0,0.0,0.0,0.0,0.0,9.81,0.0,0.0,0.0,0.0,0.0,0.0,178.5,2.63,26.19,178.5,2.63,26.19
1752000138752,1.0,0.0,0.0,0.0,0.0,0.0,9.81,0.0,0.0,0.0,0.0,0.0,0.0,179.31,3.25,26.31,179.31,3.25,26.31
1752000138872,1.0,0.0,0.0,0.0,0.0,0.0,9.81,0.0,0.0,0.0,0.0,0.0,0.0,180.5,4.56,25.31,180.5,4.56,25.31
1752000139092,1.0,0.0,0.0,0.0,0.0,0.0,9.81,0.0,0.0,0.0,0.0,0.0,0.0,182.0,9.63,22.88,182.0,9.63,22.88
1752000139226,1.0,0.0,0.0,0.0,0.0,0.0,9.81,0.0,0.0,0.0,0.0,0.0,0.0,183.81,10.88,19.88,183.81,10.88,19.88
1752000139443,1.0,0.0,0.0,0.0,0.0,0.0,9.81,0.0,0.0,0.0,0.0,0.0,0.0,188.63,14.06,17.94,188.63,14.06,17.94
1752000139560,1.0,0.0,0.0,0.0,0.0,0.0,9.81,0.0,0.0,0.0,0.0,0.0,0.0,190.81,16.81,16.88,190.81,16.81,16.88
1752000139678,1.0,0.0,0.0,0.0,0.0,0.0,9.81,0.0,0.0,0.0,0.0,0.0,0.0,191.19,17.44,17.25,191.19,17.44,17.25
1752000139997,1.0,0.0,0.0,0.0,0.0,0.0,9.81,0.0,0.0,0.0,0.0,0.0,0.0,192.88,17.69,15.81,192.88,17.69,15.81
1752000140235,1.0,0.0,0.0,0.0,0.0,0.0,9.81,0.0,0.0,0.0,0.0,0.0,0.0,194.31,18.06,15.5,194.31,18.06,15.5
1752000140354,1.0,0.0,0.0,0.0,0.0,0.0,9.81,0.0,0.0,0.0,0.0,0.0,0.0,195.25,17.94,15.5,195.25,17.94,15.5
1752000140489,1.0,0.0,0.0,0.0,0.0,0.0,9.81,0.0,0.0,0.0,0.0,0.0,0.0,195.81,17.94,15.56,195.81,17.94,15.56
1752000140606,1.0,0.0,0.0,0.0,0.0,0.0,9.81,0.0,0.0,0.0,0.0,0.0,0.0,196.44,18.44,15.94,196.44,18.44,15.94
1752000140723,1.0,0.0,0.0,0.0,0.0,0.0,9.81,0.0,0.0,0.0,0.0,0.0,0.0,197.25,19.06,16.31,197.25,19.06,16.31
1752000140840,1.0,0.0,0.0,0.0,0.0,0.0,9.81,0.0,0.0,0.0,0.0,0.0,0.0,198.31,20.25,16.19,198.31,20.25,16.19
1752000140975,1.0,0.0,0.0,0.0,0.0,0.0,9.81,0.0,0.0,0.0,0.0,0.0,0.0,199.13,22.0,15.81,199.13,22.0,15.81
1752000141093,1.0,0.0,0.0,0.0,0.0,0.0,9.81,0.0,0.0,0.0,0.0,0.0,0.0,199.19,21.5,15.38,199.19,21.5,15.38
1752000141311,1.0,0.0,0.0,0.0,0.0,0.0,9.81,0.0,0.0,0.0,0.0,0.0,0.0,200.94,23.25,15.13,200.94,23.25,15.13
1752000141445,1.0,0.0,0.0,0.0,0.0,0.0,9.81,0.0,0.0,0.0,0.0,0.0,0.0,201.44,23.63,15.44,201.44,23.63,15.44
1752000141562,1.0,0.0,0.0,0.0,0.0,0.0,9.81,0.0,0.0,0.0,0.0,0.0,0.0,201.38,24.38,15.19,201.38,24.38,15.19
1752000141680,1.0,0.0,0.0,0.0,0.0,0.0,9.81,0.0,0.0,0.0,0.0,0.0,0.0,201.5,24.63,14.63,201.5,24.63,14.63
1752000141898,1.0,0.0,0.0,0.0,0.0,0.0,9.81,0.0,0.0,0.0,0.0,0.0,0.0,202.0,24.0,14.88,202.0,24.0,14.88
1752000142033,1.0,0.0,0.0,0.0,0.0,0.0,9.81,0.0,0.0,0.0,0.0,0.0,0.0,201.94,24.0,14.88,201.94,24.0,14.88
1752000142250,1.0,0.0,0.0,0.0,0.0,0.0,9.81,0.0,0.0,0.0,0.0,0.0,0.0,202.75,23.88,13.13,202.75,23.88,13.13
1752000142367,1.0,0.0,0.0,0.0,0.0,0.0,9.81,0.0,0.0,0.0,0.0,0.0,0.0,202.88,23.63,13.81,202.88,23.63,13.81
1752000142485,1.0,0.0,0.0,0.0,0.0,0.0,9.81,0.0,0.0,0.0,0.0,0.0,0.0,202.06,24.19,14.19,202.06,24.19,14.19
1752000142619,1.0,0.0,0.0,0.0,0.0,0.0,9.81,0.0,0.0,0.0,0.0,0.0,0.0,201.38,23.69,13.56,201.38,23.69,13.56
1752000142737,1.0,0.0,0.0,0.0,0.0,0.0,9.81,0.0,0.0,0.0,0.0,0.0,0.0,201.44,22.06,13.75,201.44,22.06,13.75
1752000142854,1.0,0.0,0.0,0.0,0.0,0.0,9.81,0.0,0.0,0.0,0.0,0.0,0.0,201.56,22.44,13.25,201.56,22.44,13.25
1752000143090,1.0,0.0,0.0,0.0,0.0,0.0,9.81,0.0,0.0,0.0,0.0,0.0,0.0,200.31,20.5,14.06,200.31,20.5,14.06
1752000143207,1.0,0.0,0.0,0.0,0.0,0.0,9.81,0.0,0.0,0.0,0.0,0.0,0.0,200.94,21.0,14.5,200.94,21.0,14.5
1752000143324,1.0,0.0,0.0,0.0,0.0,0.0,9.81,0.0,0.0,0.0,0.0,0.0,0.0,201.44,21.13,14.31,201.44,21.13,14.31
1752000143458,1.0,0.0,0.0,0.0,0.0,0.0,9.81,0.0,0.0,0.0,0.0,0.0,0.0,202.0,19.56,14.44,202.0,19.56,14.44
1752000143677,1.0,0.0,0.0,0.0,0.0,0.0,9.81,0.0,0.0,0.0,0.0,0.0,0.0,202.13,21.81,14.81,202.13,21.81,14.81
1752000143911,1.0,0.0,0.0,0.0,0.0,0.0,9.81,0.0,0.0,0.0,0.0,0.0,0.0,206.69,23.38,16.56,206.69,23.38,16.56
1752000144130,1.0,0.0,0.0,0.0,0.0,0.0,9.81,0.0,0.0,0.0,0.0,0.0,0.0,207.0,22.44,15.81,207.0,22.44,15.81
1752000144247,1.0,0.0,0.0,0.0,0.0,0.0,9.81,0.0,0.0,0.0,0.0,0.0,0.0,206.31,21.88,15.75,206.31,21.88,15.75
1752000144381,1.0,0.0,0.0,0.0,0.0,0.0,9.81,0.0,0.0,0.0,0.0,0.0,0.0,205.63,21.19,15.56,205.63,21.19,15.56
1752000144499,1.0,0.0,0.0,0.0,0.0,0.0,9.81,0.0,0.0,0.0,0.0,0.0,0.0,206.13,21.06,15.56,206.13,21.06,15.56
1752000144634,1.0,0.0,0.0,0.0,0.0,0.0,9.81,0.0,0.0,0.0,0.0,0.0,0.0,207.06,20.0,15.25,207.06,20.0,15.25
1752000144752,1.0,0.0,0.0,0.0,0.0,0.0,9.81,0.0,0.0,0.0,0.0,0.0,0.0,207.5,18.44,16.31,207.5,18.44,16.31
1752000145089,1.0,0.0,0.0,0.0,0.0,0.0,9.81,0.0,0.0,0.0,0.0,0.0,0.0,204.81,15.13,18.19,204.81,15.13,18.19
1752000145206,1.0,0.0,0.0,0.0,0.0,0.0,9.81,0.0,0.0,0.0,0.0,0.0,0.0,206.63,17.06,19.44,206.63,17.06,19.44
1752000145324,1.0,0.0,0.0,0.0,0.0,0.0,9.81,0.0,0.0,0.0,0.0,0.0,0.0,211.25,21.13,21.56,211.25,21.13,21.56
1752000145442,1.0,0.0,0.0,0.0,0.0,0.0,9.81,0.0,0.0,0.0,0.0,0.0,0.0,216.31,26.25,22.69,216.31,26.25,22.69
1752000145577,1.0,0.0,0.0,0.0,0.0,0.0,9.81,0.0,0.0,0.0,0.0,0.0,0.0,221.31,30.56,23.0,221.31,30.56,23.0
1752000145695,1.0,0.0,0.0,0.0,0.0,0.0,9.81,0.0,0.0,0.0,0.0,0.0,0.0,225.69,33.56,23.0,225.69,33.56,23.0
1752000145813,1.0,0.0,0.0,0.0,0.0,0.0,9.81,0.0,0.0,0.0,0.0,0.0,0.0,230.13,36.69,22.69,230.13,36.69,22.69
1752000145947,1.0,0.0,0.0,0.0,0.0,0.0,9.81,0.0,0.0,0.0,0.0,0.0,0.0,233.81,38.88,22.13,233.81,38.88,22.13
1752000146066,1.0,0.0,0.0,0.0,0.0,0.0,9.81,0.0,0.0,0.0,0.0,0.0,0.0,236.94,40.56,20.88,236.94,40.56,20.88
1752000146183,1.0,0.0,0.0,0.0,0.0,0.0,9.81,0.0,0.0,0.0,0.0,0.0,0.0,240.31,41.88,19.5,240.31,41.88,19.5
1752000146317,1.0,0.0,0.0,0.0,0.0,0.0,9.81,0.0,0.0,0.0,0.0,0.0,0.0,243.13,43.19,18.31,243.13,43.19,18.31
1752000146434,1.0,0.0,0.0,0.0,0.0,0.0,9.81,0.0,0.0,0.0,0.0,0.0,0.0,245.81,44.56,15.56,245.81,44.56,15.56
1752000146568,1.0,0.0,0.0,0.0,0.0,0.0,9.81,0.0,0.0,0.0,0.0,0.0,0.0,248.81,45.69,12.44,248.81,45.69,12.44
1752000146689,1.0,0.0,0.0,0.0,0.0,0.0,9.81,0.0,0.0,0.0,0.0,0.0,0.0,252.69,47.69,7.0,252.69,47.69,7.0
1752000146911,1.0,0.0,0.0,0.0,0.0,0.0,9.81,0.0,0.0,0.0,0.0,0.0,0.0,258.56,48.38,0.06,258.56,48.38,0.06
1752000147130,1.0,0.0,0.0,0.0,0.0,0.0,9.81,0.0,0.0,0.0,0.0,0.0,0.0,262.94,50.56,-7.38,262.94,50.56,-7.38
1752000147264,1.0,0.0,0.0,0.0,0.0,0.0,9.81,0.0,0.0,0.0,0.0,0.0,0.0,265.75,50.56,-12.0,265.75,50.56,-12.0
