timestamp,heading,roll,pitch,acc_x,acc_y,acc_z,lin_acc_x,lin_acc_y,lin_acc_z,quat_w,quat_x,quat_y,quat_z,mag_x,mag_y,mag_z
1752780742662,251.0,-12.0,-104.0,-4.0,9.0,-2.0,-1.6,1.2,-0.4,-0.36,-0.3,-0.73,-0.51,0.0,0.0,0.0
1752780742663,289.0,-49.0,-108.0,-8.0,8.0,-0.0,-0.2,3.4,2.0,-0.51,-0.05,-0.78,-0.37,0.0,0.0,0.0
1752780742663,312.0,-64.0,-125.0,-10.0,5.0,-1.0,0.3,1.1,1.5,-0.56,0.03,-0.79,-0.25,0.0,0.0,0.0
1752780742663,334.0,-74.0,-160.0,-8.0,-1.0,-1.0,3.1,-4.2,-0.2,-0.59,0.1,-0.79,-0.14,0.0,0.0,0.0
1752780742663,347.0,-74.0,166.0,-6.0,-3.0,-1.0,3.6,-1.7,1.8,-0.6,0.14,-0.78,-0.07,0.0,0.0,0.0
1752780742663,5.0,-71.0,142.0,-7.0,-2.0,-2.0,1.8,0.2,0.7,-0.61,0.13,-0.78,0.02,0.0,0.0,0.0
1752780742759,7.0,-71.0,138.0,-8.0,-1.0,-1.0,1.7,1.4,1.1,-0.61,0.13,-0.78,0.04,0.0,0.0,0.0
1752780742887,14.0,-69.0,127.0,-7.0,-4.0,-1.0,1.6,-1.3,1.1,-0.62,0.12,-0.77,0.09,0.0,0.0,0.0
1752780742921,12.0,-70.0,130.0,-9.0,-3.0,-2.0,-1.5,0.7,-0.4,-0.62,0.13,-0.77,0.06,0.0,0.0,0.0
1752780742967,10.0,-72.0,135.0,-10.0,-2.0,-3.0,-0.3,0.3,-0.0,-0.62,0.12,-0.77,0.05,0.0,0.0,0.0
1752780743005,11.0,-71.0,134.0,-8.0,-3.0,-1.0,1.5,-0.9,1.0,-0.62,0.12,-0.78,0.06,0.0,0.0,0.0
1752780743052,11.0,-70.0,134.0,-9.0,-3.0,-2.0,0.9,-1.0,0.4,-0.62,0.12,-0.78,0.06,0.0,0.0,0.0
1752780743090,12.0,-70.0,134.0,-8.0,-4.0,-2.0,0.9,-0.8,0.7,-0.61,0.12,-0.78,0.06,0.0,0.0,0.0
1752780743140,11.0,-70.0,135.0,-9.0,-3.0,-2.0,0.1,-0.4,0.0,-0.61,0.12,-0.78,0.06,0.0,0.0,0.0
1752780743173,10.0,-70.0,136.0,-9.0,-3.0,-2.0,0.1,-0.4,-0.0,-0.61,0.12,-0.78,0.06,0.0,0.0,0.0
1752780743214,10.0,-70.0,136.0,-8.0,-3.0,-2.0,0.7,-0.7,0.3,-0.61,0.12,-0.78,0.06,0.0,0.0,0.0
1752780743357,10.0,-70.0,137.0,-8.0,-2.0,-2.0,0.8,-0.0,0.3,-0.61,0.12,-0.78,0.05,0.0,0.0,0.0
1752780743496,10.0,-70.0,138.0,-9.0,-2.0,-2.0,0.4,-0.0,0.4,-0.61,0.12,-0.78,0.06,0.0,0.0,0.0
1752780743538,10.0,-70.0,137.0,-8.0,-3.0,-2.0,1.2,-0.4,0.8,-0.61,0.12,-0.78,0.05,0.0,0.0,0.0
1752780743572,10.0,-70.0,137.0,-8.0,-3.0,-2.0,0.7,-0.4,0.7,-0.61,0.12,-0.78,0.05,0.0,0.0,0.0
1752780743616,9.0,-71.0,137.0,-9.0,-3.0,-2.0,0.3,-0.6,0.2,-0.61,0.12,-0.78,0.05,0.0,0.0,0.0
1752780743667,9.0,-71.0,137.0,-9.0,-3.0,-2.0,0.5,-0.4,0.5,-0.61,0.12,-0.78,0.05,0.0,0.0,0.0
1752780743697,9.0,-71.0,137.0,-9.0,-3.0,-2.0,0.7,-0.7,0.3,-0.61,0.12,-0.78,0.05,0.0,0.0,0.0
1752780743941,8.0,-71.0,138.0,-9.0,-2.0,-2.0,0.5,-0.3,0.4,-0.61,0.12,-0.78,0.05,0.0,0.0,0.0
1752780743991,7.0,-72.0,138.0,-9.0,-2.0,-2.0,0.5,-0.4,0.4,-0.62,0.12,-0.78,0.04,0.0,0.0,0.0
1752780744143,8.0,-72.0,136.0,-9.0,-2.0,-2.0,0.4,-0.2,0.3,-0.62,0.12,-0.77,0.04,0.0,0.0,0.0
1752780744177,8.0,-72.0,136.0,-9.0,-2.0,-2.0,0.5,-0.3,0.3,-0.62,0.12,-0.77,0.04,0.0,0.0,0.0
1752780744317,8.0,-72.0,135.0,-9.0,-2.0,-2.0,0.4,-0.1,0.2,-0.62,0.12,-0.77,0.04,0.0,0.0,0.0
1752780744375,7.0,-72.0,135.0,-9.0,-2.0,-2.0,0.5,-0.3,0.2,-0.63,0.12,-0.77,0.04,0.0,0.0,0.0
1752780744408,7.0,-72.0,135.0,-9.0,-2.0,-2.0,0.4,-0.2,0.2,-0.63,0.12,-0.77,0.04,0.0,0.0,0.0
1752780744461,7.0,-72.0,135.0,-9.0,-2.0,-2.0,0.4,-0.1,0.3,-0.63,0.12,-0.77,0.04,0.0,0.0,0.0
1752780744511,7.0,-72.0,135.0,-9.0,-2.0,-2.0,0.4,-0.1,0.2,-0.63,0.12,-0.77,0.04,0.0,0.0,0.0
1752780744642,8.0,-72.0,135.0,-9.0,-2.0,-2.0,0.5,-0.1,0.1,-0.62,0.12,-0.77,0.04,0.0,0.0,0.0
1752780744711,8.0,-72.0,135.0,-9.0,-2.0,-2.0,0.2,-0.2,0.0,-0.62,0.12,-0.77,0.04,0.0,0.0,0.0
1752780744732,8.0,-72.0,136.0,-9.0,-2.0,-2.0,0.3,-0.1,0.2,-0.62,0.12,-0.77,0.04,0.0,0.0,0.0
1752780744770,8.0,-72.0,136.0,-9.0,-2.0,-2.0,0.2,-0.1,0.2,-0.62,0.12,-0.77,0.04,0.0,0.0,0.0
1752780744807,7.0,-72.0,136.0,-9.0,-2.0,-2.0,0.2,-0.2,0.1,-0.62,0.12,-0.77,0.04,0.0,0.0,0.0
1752780744854,7.0,-72.0,136.0,-9.0,-2.0,-2.0,0.1,-0.1,0.0,-0.62,0.13,-0.77,0.04,0.0,0.0,0.0
1752780745108,8.0,-71.0,137.0,-9.0,-2.0,-2.0,0.2,-0.0,0.1,-0.62,0.12,-0.77,0.04,0.0,0.0,0.0
1752780745158,8.0,-71.0,137.0,-9.0,-2.0,-2.0,0.2,-0.2,0.1,-0.62,0.12,-0.78,0.04,0.0,0.0,0.0
1752780745208,8.0,-71.0,137.0,-9.0,-2.0,-2.0,0.1,-0.0,0.1,-0.62,0.12,-0.78,0.04,0.0,0.0,0.0
1752780745355,8.0,-71.0,137.0,-9.0,-2.0,-2.0,0.1,-0.1,0.1,-0.62,0.12,-0.78,0.04,0.0,0.0,0.0
1752780745391,8.0,-71.0,138.0,-9.0,-2.0,-2.0,0.2,-0.1,0.1,-0.62,0.12,-0.78,0.04,0.0,0.0,0.0
1752780745425,8.0,-71.0,138.0,-9.0,-2.0,-2.0,0.2,-0.1,0.2,-0.62,0.12,-0.78,0.04,0.0,0.0,0.0
1752780745774,8.0,-71.0,138.0,-9.0,-2.0,-2.0,0.1,-0.2,0.0,-0.62,0.12,-0.78,0.04,0.0,0.0,0.0
1752780745824,8.0,-71.0,138.0,-9.0,-2.0,-2.0,0.1,-0.0,0.0,-0.61,0.12,-0.78,0.04,0.0,0.0,0.0
1752780745966,8.0,-71.0,138.0,-9.0,-2.0,-2.0,0.2,-0.1,0.1,-0.61,0.12,-0.78,0.04,0.0,0.0,0.0
1752780746009,8.0,-71.0,137.0,-9.0,-2.0,-2.0,0.2,-0.1,0.1,-0.61,0.12,-0.78,0.05,0.0,0.0,0.0
1752780746256,9.0,-71.0,137.0,-9.0,-2.0,-2.0,0.2,-0.1,0.1,-0.61,0.12,-0.78,0.05,0.0,0.0,0.0
1752780746409,9.0,-71.0,137.0,-9.0,-2.0,-2.0,0.2,-0.1,0.1,-0.61,0.12,-0.78,0.05,0.0,0.0,0.0
1752780746559,9.0,-71.0,138.0,-9.0,-2.0,-2.0,0.1,-0.0,0.1,-0.61,0.12,-0.78,0.05,0.0,0.0,0.0
1752780746593,9.0,-71.0,138.0,-9.0,-2.0,-2.0,0.0,0.0,-0.0,-0.61,0.12,-0.78,0.05,0.0,0.0,0.0
1752780746744,9.0,-71.0,138.0,-9.0,-2.0,-2.0,0.1,-0.0,0.0,-0.61,0.12,-0.78,0.05,0.0,0.0,0.0
1752780746779,9.0,-71.0,138.0,-9.0,-2.0,-2.0,0.2,-0.0,0.0,-0.61,0.12,-0.78,0.05,0.0,0.0,0.0
1752780746912,9.0,-71.0,137.0,-9.0,-2.0,-2.0,0.2,-0.2,0.0,-0.61,0.12,-0.78,0.05,0.0,0.0,0.0
1752780746962,10.0,-71.0,135.0,-9.0,-3.0,-2.0,0.2,-0.1,-0.0,-0.62,0.12,-0.78,0.05,0.0,0.0,0.0
1752780747002,10.0,-71.0,135.0,-9.0,-2.0,-2.0,0.1,0.1,0.1,-0.62,0.12,-0.78,0.05,0.0,0.0,0.0
1752780747151,10.0,-71.0,136.0,-9.0,-2.0,-2.0,0.2,-0.1,0.1,-0.62,0.12,-0.78,0.05,0.0,0.0,0.0
1752780747292,10.0,-71.0,133.0,-9.0,-2.0,-2.0,0.3,-0.4,-0.2,-0.62,0.12,-0.78,0.06,0.0,0.0,0.0
1752780747333,10.0,-72.0,131.0,-9.0,-3.0,-2.0,0.1,-0.2,-0.2,-0.63,0.11,-0.77,0.06,0.0,0.0,0.0
1752780747375,11.0,-74.0,129.0,-9.0,-2.0,-2.0,0.4,0.3,0.1,-0.64,0.1,-0.76,0.06,0.0,0.0,0.0
1752780747418,10.0,-77.0,123.0,-9.0,-2.0,-1.0,0.1,-0.5,-0.2,-0.65,0.08,-0.75,0.06,0.0,0.0,0.0
1752780747452,7.0,-81.0,114.0,-6.0,-0.0,-2.0,3.6,0.8,-1.2,-0.68,0.06,-0.73,0.04,0.0,0.0,0.0
1752780747498,5.0,-83.0,102.0,-15.0,3.0,2.0,-1.1,2.1,1.2,-0.7,0.06,-0.71,0.03,0.0,0.0,0.0
1752780747533,4.0,-84.0,6.0,-9.0,-2.0,0.0,0.2,-0.5,-0.1,-0.72,0.05,-0.69,0.02,0.0,0.0,0.0
1752780747775,356.0,-74.0,-16.0,-9.0,1.0,3.0,0.1,0.3,0.2,-0.74,0.05,-0.67,-0.0,0.0,0.0,0.0
1752780747818,356.0,-74.0,-18.0,-9.0,1.0,3.0,-0.0,0.2,0.0,-0.8,-0.03,-0.6,-0.03,0.0,0.0,0.0
1752780747868,357.0,-75.0,-18.0,-10.0,1.0,2.0,0.0,0.0,0.2,-0.79,-0.03,-0.61,-0.02,0.0,0.0,0.0
1752780747909,358.0,-77.0,-17.0,-9.0,1.0,2.0,0.1,0.1,0.1,-0.78,-0.03,-0.62,-0.01,0.0,0.0,0.0
1752780747948,358.0,-79.0,-14.0,-10.0,0.0,2.0,0.0,-0.3,-0.3,-0.77,-0.02,-0.64,-0.01,0.0,0.0,0.0
1752780747982,359.0,-81.0,-11.0,-10.0,0.0,2.0,0.1,-0.3,0.1,-0.76,-0.01,-0.65,-0.01,0.0,0.0,0.0
1752780748032,0.0,-82.0,-4.0,-10.0,-0.0,1.0,-0.0,-0.3,0.0,-0.75,-0.01,-0.66,0.0,0.0,0.0,0.0
1752780748068,0.0,-83.0,0.0,-10.0,-1.0,1.0,0.0,-0.5,-0.1,-0.75,-0.0,-0.66,0.0,0.0,0.0,0.0
1752780748117,1.0,-84.0,0.0,-10.0,-1.0,1.0,0.1,-0.4,0.0,-0.75,0.0,-0.67,0.0,0.0,0.0,0.0
1752780748357,1.0,-84.0,1.0,-10.0,-0.0,1.0,0.1,-0.2,-0.0,-0.74,0.0,-0.67,0.01,0.0,0.0,0.0
1752780748495,2.0,-85.0,1.0,-10.0,-0.0,1.0,0.1,-0.2,0.0,-0.73,0.0,-0.68,0.01,0.0,0.0,0.0
1752780748543,2.0,-85.0,1.0,-10.0,-0.0,1.0,0.1,-0.1,0.1,-0.73,0.0,-0.68,0.01,0.0,0.0,0.0
1752780748690,2.0,-85.0,2.0,-10.0,-0.0,1.0,0.1,-0.2,0.1,-0.73,0.01,-0.68,0.01,0.0,0.0,0.0
1752780748829,2.0,-86.0,2.0,-10.0,-0.0,1.0,0.0,-0.2,-0.0,-0.73,0.01,-0.68,0.02,0.0,0.0,0.0
1752780748868,2.0,-85.0,2.0,-10.0,-0.0,1.0,0.0,-0.0,0.0,-0.73,0.01,-0.68,0.02,0.0,0.0,0.0
1752780748917,2.0,-85.0,2.0,-10.0,-1.0,1.0,0.2,-0.2,0.1,-0.73,0.01,-0.68,0.02,0.0,0.0,0.0
1752780748968,3.0,-86.0,2.0,-10.0,-0.0,1.0,0.0,0.0,-0.1,-0.73,0.01,-0.68,0.02,0.0,0.0,0.0
1752780749107,3.0,-86.0,2.0,-10.0,-0.0,1.0,0.0,0.0,0.1,-0.73,0.01,-0.68,0.02,0.0,0.0,0.0
1752780749157,3.0,-86.0,2.0,-10.0,-0.0,1.0,0.0,-0.1,0.0,-0.73,0.01,-0.68,0.02,0.0,0.0,0.0
1752780749507,3.0,-86.0,2.0,-10.0,-0.0,1.0,0.0,-0.1,0.0,-0.73,0.01,-0.68,0.02,0.0,0.0,0.0
1752780749749,3.0,-86.0,2.0,-10.0,-0.0,1.0,-0.1,0.1,0.0,-0.73,0.01,-0.68,0.02,0.0,0.0,0.0
1752780749892,3.0,-86.0,2.0,-10.0,-1.0,1.0,0.1,-0.2,0.0,-0.73,0.01,-0.68,0.02,0.0,0.0,0.0
1752780750026,3.0,-86.0,2.0,-10.0,-0.0,1.0,0.0,-0.1,0.0,-0.73,0.01,-0.68,0.02,0.0,0.0,0.0
1752780750075,3.0,-86.0,2.0,-10.0,-0.0,1.0,0.0,0.1,0.0,-0.73,0.01,-0.68,0.02,0.0,0.0,0.0
1752780750223,3.0,-86.0,2.0,-10.0,1.0,1.0,-0.5,1.0,0.3,-0.73,0.01,-0.68,0.02,0.0,0.0,0.0
1752780750261,1.0,-86.0,2.0,-11.0,0.0,0.0,-0.8,0.7,-0.3,-0.73,0.02,-0.68,0.01,0.0,0.0,0.0
1752780750307,359.0,-86.0,2.0,-10.0,-1.0,0.0,-0.0,-1.5,-0.5,-0.73,0.03,-0.68,-0.0,0.0,0.0,0.0
1752780750343,356.0,-86.0,1.0,-9.0,-0.0,0.0,0.8,0.2,-1.2,-0.73,0.04,-0.68,-0.03,0.0,0.0,0.0
1752780750377,349.0,-81.0,-12.0,-10.0,-0.0,2.0,0.1,0.1,0.7,-0.76,0.04,-0.65,-0.07,0.0,0.0,0.0
1752780750527,355.0,-64.0,-6.0,-8.0,1.0,4.0,0.5,0.0,0.0,-0.84,-0.01,-0.54,-0.03,0.0,0.0,0.0
1752780750561,355.0,-62.0,-8.0,-9.0,1.0,5.0,-0.5,-0.0,0.0,-0.86,-0.01,-0.51,-0.04,0.0,0.0,0.0
1752780750611,354.0,-59.0,-10.0,-9.0,1.0,5.0,-0.3,-0.2,-0.2,-0.87,-0.03,-0.49,-0.05,0.0,0.0,0.0
1752780750644,353.0,-56.0,-12.0,-8.0,1.0,5.0,0.2,-0.3,-0.2,-0.88,-0.04,-0.48,-0.06,0.0,0.0,0.0
1752780750677,351.0,-54.0,-14.0,-8.0,1.0,5.0,-0.2,-0.8,-0.7,-0.88,-0.04,-0.46,-0.07,0.0,0.0,0.0
1752780750737,347.0,-50.0,-18.0,-7.0,2.0,6.0,-0.1,-0.2,0.2,-0.89,-0.06,-0.44,-0.1,0.0,0.0,0.0
1752780750762,344.0,-47.0,-20.0,-7.0,2.0,6.0,-0.0,-0.1,-0.2,-0.9,-0.08,-0.41,-0.12,0.0,0.0,0.0
1752780750811,341.0,-43.0,-23.0,-6.0,3.0,7.0,-1.2,-1.4,-0.7,-0.9,-0.09,-0.39,-0.15,0.0,0.0,0.0
1752780750838,340.0,-42.0,-24.0,-6.0,3.0,7.0,0.0,0.2,-0.1,-0.9,-0.1,-0.39,-0.16,0.0,0.0,0.0
1752780750878,338.0,-39.0,-24.0,-6.0,3.0,7.0,-0.2,0.4,0.2,-0.91,-0.1,-0.37,-0.18,0.0,0.0,0.0
1752780750921,336.0,-37.0,-23.0,-6.0,3.0,7.0,-0.2,0.4,0.1,-0.91,-0.1,-0.35,-0.19,0.0,0.0,0.0
1752780750963,335.0,-36.0,-23.0,-5.0,3.0,7.0,0.2,0.2,-0.1,-0.91,-0.1,-0.34,-0.2,0.0,0.0,0.0
1752780751001,334.0,-33.0,-23.0,-5.0,3.0,7.0,0.8,-0.0,-0.3,-0.92,-0.1,-0.32,-0.21,0.0,0.0,0.0
1752780751038,332.0,-30.0,-22.0,-6.0,4.0,8.0,-1.3,0.5,0.6,-0.92,-0.1,-0.3,-0.23,0.0,0.0,0.0
1752780751078,330.0,-27.0,-22.0,-5.0,4.0,9.0,-0.8,0.9,0.7,-0.92,-0.11,-0.27,-0.25,0.0,0.0,0.0
1752780751222,330.0,-25.0,-22.0,-8.0,2.0,6.0,0.7,1.6,1.0,-0.93,-0.11,-0.26,-0.25,0.0,0.0,0.0
1752780751268,345.0,-69.0,8.0,-7.0,-4.0,1.0,2.4,-1.9,-0.2,-0.82,0.1,-0.56,-0.11,0.0,0.0,0.0
1752780751419,61.0,-35.0,126.0,-4.0,-6.0,-5.0,0.3,0.3,0.5,-0.71,0.18,-0.69,0.02,0.0,0.0,0.0
1752780751453,66.0,-33.0,125.0,-7.0,-7.0,-5.0,-1.3,-0.4,-0.9,-0.43,0.27,-0.82,0.28,0.0,0.0,0.0
1752780751489,63.0,-35.0,125.0,-5.0,-7.0,-5.0,2.8,0.0,-1.4,-0.44,0.27,-0.82,0.27,0.0,0.0,0.0
1752780751536,58.0,-37.0,125.0,-5.0,-7.0,-5.0,0.6,-0.5,-0.5,-0.45,0.27,-0.81,0.26,0.0,0.0,0.0
1752780751573,56.0,-38.0,125.0,-6.0,-6.0,-4.0,0.1,-0.0,-0.0,-0.46,0.27,-0.81,0.25,0.0,0.0,0.0
1752780751622,54.0,-39.0,125.0,-6.0,-6.0,-4.0,0.5,-0.3,-0.3,-0.47,0.27,-0.81,0.24,0.0,0.0,0.0
1752780751672,53.0,-40.0,124.0,-6.0,-5.0,-3.0,0.3,0.8,0.7,-0.48,0.27,-0.8,0.24,0.0,0.0,0.0
1752780751706,51.0,-41.0,123.0,-6.0,-6.0,-4.0,-0.3,0.2,-0.1,-0.49,0.27,-0.8,0.23,0.0,0.0,0.0
1752780751740,49.0,-42.0,124.0,-6.0,-6.0,-4.0,1.1,-0.2,-0.3,-0.49,0.27,-0.8,0.22,0.0,0.0,0.0
1752780751789,47.0,-42.0,124.0,-6.0,-6.0,-4.0,0.5,0.1,0.1,-0.5,0.27,-0.79,0.22,0.0,0.0,0.0
1752780751823,45.0,-43.0,124.0,-6.0,-6.0,-4.0,0.3,-0.3,-0.4,-0.5,0.27,-0.79,0.21,0.0,0.0,0.0
1752780751870,44.0,-44.0,123.0,-7.0,-5.0,-4.0,-0.0,0.4,0.2,-0.51,0.27,-0.79,0.2,0.0,0.0,0.0
1752780751906,42.0,-46.0,122.0,-7.0,-6.0,-4.0,0.3,0.2,0.3,-0.52,0.27,-0.79,0.2,0.0,0.0,0.0
1752780752041,34.0,-53.0,116.0,-7.0,-5.0,-3.0,0.9,-0.1,-0.1,-0.53,0.26,-0.78,0.19,0.0,0.0,0.0
1752780752087,29.0,-57.0,112.0,-7.0,-5.0,-2.0,1.5,-0.4,0.0,-0.6,0.23,-0.75,0.16,0.0,0.0,0.0
1752780752124,24.0,-62.0,104.0,-9.0,-4.0,-1.0,-0.2,0.1,-0.3,-0.64,0.2,-0.73,0.14,0.0,0.0,0.0
1752780752169,20.0,-66.0,95.0,-8.0,-3.0,1.0,1.3,0.4,0.5,-0.68,0.17,-0.7,0.12,0.0,0.0,0.0
1752780752207,14.0,-70.0,76.0,-7.0,-2.0,2.0,-0.5,-1.1,-0.7,-0.73,0.14,-0.66,0.09,0.0,0.0,0.0
1752780752241,10.0,-71.0,55.0,-11.0,-3.0,2.0,-0.4,0.3,-0.3,-0.77,0.12,-0.63,0.07,0.0,0.0,0.0
1752780752288,8.0,-71.0,37.0,-9.0,-1.0,3.0,0.7,0.9,0.7,-0.79,0.09,-0.6,0.05,0.0,0.0,0.0
1752780752442,358.0,-58.0,3.0,-10.0,-0.0,6.0,-1.7,-0.3,0.6,-0.87,0.03,-0.5,-0.01,0.0,0.0,0.0
1752780752475,358.0,-54.0,2.0,-5.0,6.0,4.0,0.6,-0.2,-0.4,-0.89,0.02,-0.46,-0.02,0.0,0.0,0.0
1752780752523,2.0,-49.0,4.0,-9.0,-0.0,7.0,-0.6,-0.4,-0.2,-0.91,0.02,-0.42,0.01,0.0,0.0,0.0
1752780752573,3.0,-44.0,6.0,-7.0,-0.0,8.0,-0.4,0.8,0.4,-0.93,0.03,-0.38,0.03,0.0,0.0,0.0
1752780752607,7.0,-40.0,10.0,-5.0,-2.0,7.0,-1.3,1.6,-0.5,-0.94,0.05,-0.35,0.05,0.0,0.0,0.0
1752780752642,10.0,-36.0,12.0,-8.0,-3.0,8.0,1.1,-0.0,0.6,-0.94,0.06,-0.32,0.08,0.0,0.0,0.0
1752780752685,9.0,-36.0,19.0,-7.0,-2.0,7.0,-1.0,0.9,0.0,-0.94,0.12,-0.32,0.08,0.0,0.0,0.0
1752780752729,11.0,-37.0,26.0,-6.0,-4.0,7.0,0.1,-0.1,-0.1,-0.92,0.16,-0.34,0.09,0.0,0.0,0.0
1752780752873,14.0,-36.0,30.0,-5.0,-5.0,6.0,-0.5,0.2,0.2,-0.91,0.16,-0.36,0.11,0.0,0.0,0.0
1752780753125,16.0,-33.0,42.0,-5.0,-5.0,6.0,0.1,0.3,-0.3,-0.89,0.27,-0.34,0.12,0.0,0.0,0.0
1752780753161,14.0,-32.0,41.0,-5.0,-6.0,5.0,-0.2,-0.6,-0.5,-0.9,0.27,-0.33,0.11,0.0,0.0,0.0
1752780753200,13.0,-32.0,40.0,-5.0,-4.0,6.0,0.5,-0.8,-0.9,-0.9,0.27,-0.32,0.1,0.0,0.0,0.0
1752780753237,11.0,-31.0,37.0,-4.0,-6.0,6.0,0.8,-0.7,-1.3,-0.91,0.25,-0.31,0.09,0.0,0.0,0.0
1752780753289,9.0,-30.0,32.0,-5.0,-5.0,6.0,-0.2,-0.5,-0.9,-0.92,0.23,-0.29,0.08,0.0,0.0,0.0
1752780753319,8.0,-31.0,29.0,-5.0,-4.0,7.0,-0.5,-0.2,-0.3,-0.93,0.2,-0.29,0.07,0.0,0.0,0.0
1752780753360,6.0,-30.0,23.0,-5.0,-4.0,7.0,0.1,-1.1,-0.6,-0.95,0.17,-0.27,0.05,0.0,0.0,0.0
1752780753398,5.0,-30.0,18.0,-5.0,-3.0,8.0,-0.1,-0.4,-0.2,-0.96,0.13,-0.26,0.04,0.0,0.0,0.0
1752780753444,5.0,-28.0,11.0,-5.0,-2.0,8.0,-0.3,-0.5,-0.7,-0.96,0.08,-0.25,0.04,0.0,0.0,0.0
1752780753481,6.0,-28.0,6.0,-5.0,-0.0,8.0,-0.2,0.3,-0.5,-0.97,0.04,-0.25,0.05,0.0,0.0,0.0
1752780753528,7.0,-29.0,1.0,-6.0,0.0,9.0,-1.2,0.5,0.6,-0.97,0.0,-0.25,0.06,0.0,0.0,0.0
1752780753672,10.0,-31.0,-10.0,-7.0,2.0,9.0,-1.8,0.2,0.7,-0.96,-0.1,-0.26,0.08,0.0,0.0,0.0
1752780753706,7.0,-32.0,-10.0,-5.0,2.0,8.0,0.3,0.8,-0.0,-0.96,-0.1,-0.27,0.06,0.0,0.0,0.0
1752780753746,5.0,-35.0,-11.0,-6.0,1.0,8.0,0.1,-1.1,-0.4,-0.95,-0.09,-0.29,0.04,0.0,0.0,0.0
1752780753796,7.0,-36.0,-12.0,-6.0,1.0,8.0,-0.0,0.0,-0.1,-0.94,-0.11,-0.31,0.06,0.0,0.0,0.0
1752780753833,15.0,-39.0,-15.0,-5.0,1.0,7.0,1.3,-1.1,-0.7,-0.93,-0.15,-0.32,0.11,0.0,0.0,0.0
1752780753980,27.0,-35.0,-9.0,-5.0,7.0,8.0,0.5,2.3,2.0,-0.92,-0.13,-0.28,0.24,0.0,0.0,0.0
1752780754117,24.0,-30.0,-16.0,-3.0,6.0,8.0,0.7,1.0,0.5,-0.94,-0.17,-0.23,0.2,0.0,0.0,0.0
1752780754166,13.0,-18.0,-33.0,-3.0,5.0,8.0,0.1,-1.8,-1.0,-0.94,-0.29,-0.13,0.11,0.0,0.0,0.0
1752780754196,13.0,-17.0,-36.0,-2.0,6.0,4.0,1.0,0.8,-3.6,-0.94,-0.32,-0.12,0.1,0.0,0.0,0.0
1752780754241,12.0,-15.0,-40.0,-2.0,5.0,6.0,0.6,-1.5,-0.9,-0.93,-0.34,-0.1,0.1,0.0,0.0,0.0
1752780754285,11.0,-14.0,-42.0,-2.0,9.0,2.0,0.9,-3.9,-1.0,-0.92,-0.36,-0.09,0.1,0.0,0.0,0.0
1752780754536,13.0,-15.0,-39.0,-3.0,6.0,8.0,-0.8,-0.4,0.9,-0.93,-0.34,-0.1,0.11,0.0,0.0,0.0
1752780754583,13.0,-14.0,-39.0,-3.0,6.0,8.0,-0.5,-0.2,0.6,-0.93,-0.34,-0.09,0.11,0.0,0.0,0.0
1752780754620,13.0,-14.0,-39.0,-2.0,6.0,7.0,0.0,0.4,-0.7,-0.93,-0.33,-0.09,0.1,0.0,0.0,0.0
1752780754666,12.0,-14.0,-38.0,-2.0,5.0,8.0,-0.7,0.3,0.6,-0.93,-0.33,-0.1,0.1,0.0,0.0,0.0
1752780754702,12.0,-14.0,-37.0,-3.0,6.0,7.0,-0.4,-0.3,0.2,-0.94,-0.32,-0.1,0.09,0.0,0.0,0.0
1752780754745,11.0,-15.0,-36.0,-3.0,4.0,8.0,-0.0,-1.5,0.5,-0.94,-0.32,-0.11,0.09,0.0,0.0,0.0
1752780754782,10.0,-16.0,-35.0,-2.0,7.0,11.0,0.6,1.2,2.8,-0.94,-0.31,-0.12,0.09,0.0,0.0,0.0
1752780754820,10.0,-18.0,-35.0,-1.0,6.0,17.0,2.7,1.0,9.8,-0.94,-0.3,-0.14,0.08,0.0,0.0,0.0
1752780754859,9.0,-27.0,-36.0,1.0,10.0,18.0,8.1,3.6,9.3,-0.93,-0.3,-0.22,0.07,0.0,0.0,0.0
1752780754896,6.0,-46.0,-37.0,4.0,15.0,13.0,12.7,13.7,6.3,-0.88,-0.26,-0.4,0.05,0.0,0.0,0.0
1752780755141,350.0,-62.0,-177.0,-9.0,-1.0,-3.0,0.6,-1.6,-0.5,-0.77,-0.16,-0.61,0.01,0.0,0.0,0.0
1752780755282,349.0,-62.0,-175.0,-9.0,-0.0,-4.0,0.5,-0.7,-0.9,-0.51,0.05,-0.86,-0.05,0.0,0.0,0.0
1752780755330,357.0,-70.0,-176.0,-5.0,-1.0,-12.0,4.0,-1.4,-9.3,-0.57,-0.0,-0.82,-0.01,0.0,0.0,0.0
1752780755367,5.0,-75.0,-172.0,-2.0,4.0,-9.0,6.0,3.7,-2.9,-0.61,-0.06,-0.79,0.02,0.0,0.0,0.0
1752780755400,12.0,-84.0,-6.0,-5.0,2.0,1.0,7.1,-0.0,-3.8,-0.71,-0.14,-0.68,0.07,0.0,0.0,0.0
1752780755441,17.0,-67.0,-40.0,1.0,8.0,3.0,9.5,4.8,-0.6,-0.78,-0.22,-0.58,0.12,0.0,0.0,0.0
1752780755485,19.0,-45.0,-36.0,-2.0,8.0,16.0,4.4,3.7,9.8,-0.86,-0.29,-0.4,0.14,0.0,0.0,0.0
1752780755532,21.0,-32.0,-34.0,-3.0,8.0,20.0,1.7,2.8,12.5,-0.91,-0.31,-0.24,0.16,0.0,0.0,0.0
1752780755561,20.0,-23.0,-34.0,-5.0,6.0,16.0,-0.5,0.0,4.5,-0.92,-0.31,-0.16,0.17,0.0,0.0,0.0
1752780755602,19.0,-24.0,-36.0,-4.0,7.0,3.0,0.8,1.9,-4.9,-0.92,-0.32,-0.17,0.15,0.0,0.0,0.0
1752780755643,19.0,-23.0,-37.0,-4.0,5.0,9.0,-0.4,-0.8,2.3,-0.92,-0.33,-0.15,0.15,0.0,0.0,0.0
1752780755685,20.0,-21.0,-38.0,-4.0,6.0,9.0,-0.5,1.1,1.0,-0.92,-0.34,-0.14,0.16,0.0,0.0,0.0
1752780755935,20.0,-20.0,-39.0,11.0,18.0,24.0,17.8,13.8,17.6,-0.92,-0.34,-0.12,0.16,0.0,0.0,0.0
1752780755976,8.0,-55.0,-41.0,25.0,15.0,5.0,34.3,12.1,3.6,-0.84,-0.26,-0.47,0.06,0.0,0.0,0.0
1752780756016,342.0,-69.0,-130.0,26.0,17.0,-14.0,28.7,6.6,-19.8,-0.61,-0.1,-0.78,-0.1,0.0,0.0,0.0
1752780756052,352.0,-34.0,-164.0,17.0,-6.0,-39.0,13.8,-2.7,-28.5,-0.29,0.07,-0.95,-0.14,0.0,0.0,0.0
1752780756100,351.0,-34.0,-167.0,-7.0,5.0,-6.0,-1.2,3.6,1.4,-0.26,0.09,-0.95,-0.13,0.0,0.0,0.0
1752780756136,351.0,-42.0,-171.0,-7.0,-4.0,-6.0,-0.5,-5.2,1.6,-0.34,0.07,-0.93,-0.1,0.0,0.0,0.0
1752780756177,352.0,-42.0,-173.0,-7.0,2.0,-5.0,-0.6,0.6,1.7,-0.36,0.07,-0.93,-0.08,0.0,0.0,0.0
1752780756217,353.0,-43.0,-171.0,-6.0,3.0,-8.0,1.2,-0.1,-1.8,-0.36,0.06,-0.93,-0.08,0.0,0.0,0.0
1752780756253,352.0,-43.0,-171.0,-6.0,-0.0,-7.0,0.2,-0.5,0.2,-0.36,0.06,-0.93,-0.08,0.0,0.0,0.0
1752780756303,353.0,-44.0,-171.0,-7.0,2.0,-6.0,-0.1,0.7,0.3,-0.37,0.06,-0.92,-0.08,0.0,0.0,0.0
1752780756437,348.0,-47.0,-174.0,-1.0,-3.0,-16.0,7.5,-3.2,-10.3,-0.39,0.02,-0.92,-0.05,0.0,0.0,0.0
1752780756488,4.0,-61.0,-170.0,6.0,1.0,-13.0,15.1,0.1,-8.8,-0.48,-0.08,-0.87,0.0,0.0,0.0,0.0
1752780756528,8.0,-72.0,-142.0,11.0,12.0,-2.0,20.6,8.6,-2.2,-0.61,-0.2,-0.76,0.04,0.0,0.0,0.0
1752780756563,9.0,-59.0,-64.0,8.0,17.0,12.0,14.5,9.4,12.3,-0.78,-0.34,-0.52,0.06,0.0,0.0,0.0
1752780756604,16.0,-31.0,-47.0,0.0,10.0,29.0,2.6,3.9,23.6,-0.88,-0.39,-0.24,0.13,0.0,0.0,0.0
1752780756646,18.0,-19.0,-44.0,-3.0,8.0,11.0,0.8,1.9,4.8,-0.91,-0.38,-0.12,0.15,0.0,0.0,0.0
1752780756788,14.0,-23.0,-45.0,-3.0,7.0,5.0,0.2,0.0,-0.9,-0.9,-0.38,-0.16,0.12,0.0,0.0,0.0
1752780756933,9.0,-27.0,-47.0,1.0,9.0,16.0,5.2,2.7,10.2,-0.89,-0.39,-0.22,0.08,0.0,0.0,0.0
1752780756973,5.0,-31.0,-49.0,5.0,11.0,20.0,10.9,4.8,14.9,-0.88,-0.38,-0.28,0.04,0.0,0.0,0.0
1752780757021,357.0,-43.0,-55.0,16.0,15.0,16.0,28.4,12.2,10.0,-0.84,-0.34,-0.42,-0.02,0.0,0.0,0.0
1752780757052,338.0,-60.0,-96.0,29.0,21.0,-2.0,37.6,15.9,-8.8,-0.68,-0.24,-0.69,-0.13,0.0,0.0,0.0
1752780757100,358.0,-31.0,-153.0,28.0,-5.0,-38.0,32.4,-8.7,-29.7,-0.35,-0.04,-0.91,-0.21,0.0,0.0,0.0
1752780757136,336.0,-11.0,-162.0,6.0,3.0,-31.0,8.5,0.1,-21.9,-0.08,0.19,-0.96,-0.18,0.0,0.0,0.0
1752780757178,338.0,-17.0,-165.0,-6.0,3.0,-0.0,-1.7,0.8,8.3,-0.13,0.19,-0.96,-0.15,0.0,0.0,0.0
1752780757222,342.0,-33.0,-169.0,-9.0,1.0,-1.0,-0.2,-1.2,2.1,-0.27,0.15,-0.94,-0.13,0.0,0.0,0.0
1752780757253,339.0,-32.0,-171.0,-3.0,-3.0,-11.0,1.4,-4.6,-1.6,-0.26,0.18,-0.94,-0.12,0.0,0.0,0.0
1752780757290,338.0,-33.0,-175.0,-5.0,0.0,-8.0,-0.4,2.1,1.3,-0.27,0.19,-0.94,-0.09,0.0,0.0,0.0
1752780757442,10.0,-44.0,169.0,-1.0,-10.0,-12.0,6.0,-8.8,-5.6,-0.37,0.12,-0.92,0.03,0.0,0.0,0.0
1752780757476,8.0,-50.0,175.0,9.0,-2.0,-18.0,16.7,-2.6,-12.7,-0.42,0.0,-0.91,0.03,0.0,0.0,0.0
1752780757517,353.0,-62.0,-146.0,10.0,11.0,-5.0,16.2,9.5,1.1,-0.55,-0.19,-0.81,-0.03,0.0,0.0,0.0
1752780757557,351.0,-55.0,-87.0,-1.0,17.0,4.0,7.4,9.9,0.8,-0.71,-0.35,-0.6,-0.06,0.0,0.0,0.0
1752780757594,353.0,-42.0,-73.0,3.0,8.0,3.0,8.3,4.1,4.1,-0.78,-0.43,-0.45,-0.04,0.0,0.0,0.0
1752780757635,358.0,-25.0,-61.0,0.0,12.0,16.0,4.0,4.2,11.3,-0.84,-0.46,-0.29,-0.02,0.0,0.0,0.0
1752780757781,1.0,-17.0,-56.0,-4.0,8.0,6.0,0.2,-0.5,1.1,-0.87,-0.46,-0.17,0.0,0.0,0.0,0.0
1752780757832,358.0,-22.0,-60.0,-2.0,9.0,6.0,1.4,1.4,1.6,-0.86,-0.46,-0.23,-0.02,0.0,0.0,0.0
1752780757866,357.0,-22.0,-60.0,-1.0,8.0,10.0,3.8,1.3,8.6,-0.85,-0.47,-0.24,-0.02,0.0,0.0,0.0
1752780757901,356.0,-23.0,-62.0,2.0,13.0,19.0,6.3,5.0,16.0,-0.85,-0.47,-0.25,-0.03,0.0,0.0,0.0
1752780757949,352.0,-34.0,-68.0,10.0,11.0,15.0,20.1,3.5,12.0,-0.81,-0.45,-0.37,-0.06,0.0,0.0,0.0
1752780758095,333.0,-7.0,-165.0,9.0,-18.0,-29.0,10.7,-19.7,-19.6,-0.68,-0.37,-0.62,-0.15,0.0,0.0,0.0
1752780758130,330.0,-14.0,-171.0,-2.0,4.0,-8.0,1.4,2.9,0.9,-0.1,0.26,-0.96,-0.11,0.0,0.0,0.0
1752780758165,337.0,-28.0,-175.0,-10.0,3.0,2.0,-2.1,-0.7,6.2,-0.23,0.2,-0.95,-0.09,0.0,0.0,0.0
1752780758213,333.0,-29.0,-178.0,-3.0,-5.0,-11.0,2.2,-5.8,-2.7,-0.24,0.23,-0.94,-0.08,0.0,0.0,0.0
1752780758340,332.0,-29.0,-180.0,-5.0,-2.0,-7.0,-0.3,-1.9,0.0,-0.24,0.24,-0.94,-0.06,0.0,0.0,0.0
1752780758383,332.0,-31.0,179.0,-5.0,1.0,-9.0,0.3,1.3,-0.2,-0.26,0.23,-0.93,-0.05,0.0,0.0,0.0
1752780758629,333.0,-31.0,179.0,-1.0,-2.0,-11.0,6.5,-3.4,-6.2,-0.26,0.22,-0.94,-0.06,0.0,0.0,0.0
1752780758771,344.0,-46.0,-112.0,-6.0,10.0,5.0,1.0,3.6,6.5,-0.6,-0.44,-0.66,-0.09,0.0,0.0,0.0
1752780758808,347.0,-44.0,-108.0,-6.0,6.0,2.0,-0.3,1.1,5.4,-0.62,-0.48,-0.61,-0.07,0.0,0.0,0.0
1752780758849,348.0,-41.0,-109.0,-6.0,6.0,-0.0,-0.2,-0.7,1.3,-0.61,-0.52,-0.59,-0.07,0.0,0.0,0.0
1752780758892,340.0,-38.0,-110.0,-6.0,6.0,-5.0,0.3,-1.8,-2.6,-0.6,-0.51,-0.6,-0.1,0.0,0.0,0.0
1752780758933,338.0,-37.0,-108.0,-7.0,8.0,-1.0,-1.3,-0.1,1.2,-0.6,-0.51,-0.6,-0.12,0.0,0.0,0.0
1752780758971,337.0,-35.0,-106.0,-7.0,6.0,0.0,-0.5,-1.9,2.5,-0.61,-0.53,-0.57,-0.12,0.0,0.0,0.0
1752780759008,334.0,-30.0,-107.0,-4.0,8.0,3.0,-0.1,1.8,7.2,-0.6,-0.56,-0.55,-0.14,0.0,0.0,0.0
1752780759049,325.0,-22.0,-110.0,-2.0,12.0,4.0,1.7,3.3,6.8,-0.56,-0.62,-0.52,-0.18,0.0,0.0,0.0
1752780759089,304.0,-10.0,-120.0,2.0,12.0,-0.0,3.4,3.3,4.8,-0.47,-0.66,-0.54,-0.22,0.0,0.0,0.0
1752780759133,292.0,-6.0,-126.0,6.0,11.0,0.0,6.5,2.3,7.3,-0.38,-0.67,-0.59,-0.25,0.0,0.0,0.0
1752780759276,86.0,-2.0,-141.0,7.0,7.0,-1.0,40.0,-20.2,13.2,-0.27,-0.66,-0.66,-0.24,0.0,0.0,0.0
1752780759326,293.0,4.0,153.0,9.0,-39.0,23.0,1.8,-18.0,22.4,-0.1,0.54,-0.81,0.21,0.0,0.0,0.0
1752780759354,39.0,-33.0,129.0,-21.0,-0.0,17.0,-8.8,10.2,16.9,-0.46,0.45,-0.75,0.16,0.0,0.0,0.0
1752780759409,6.0,-48.0,134.0,-0.0,-5.0,-5.0,6.1,0.2,0.4,-0.54,0.43,-0.72,0.01,0.0,0.0,0.0
1752780759442,51.0,-24.0,131.0,4.0,-27.0,-7.0,8.0,-20.1,-0.8,-0.42,0.49,-0.75,0.16,0.0,0.0,0.0
1752780759490,41.0,-31.0,132.0,-9.0,6.0,-2.0,-1.5,7.2,3.0,-0.43,0.44,-0.77,0.16,0.0,0.0,0.0
1752780759543,36.0,-36.0,138.0,-3.0,-10.0,-5.0,1.7,-4.1,1.4,-0.42,0.38,-0.81,0.14,0.0,0.0,0.0
1752780759677,329.0,-28.0,154.0,-4.0,-7.0,-5.0,1.0,-2.5,0.6,-0.3,0.26,-0.91,0.12,0.0,0.0,0.0
1752780759727,331.0,-25.0,158.0,-3.0,-2.0,-10.0,0.9,0.9,-1.9,-0.26,0.24,-0.93,0.12,0.0,0.0,0.0
1752780759761,335.0,-22.0,162.0,-3.0,-10.0,-5.0,-0.1,-9.7,6.5,-0.22,0.21,-0.95,0.1,0.0,0.0,0.0
1752780759795,340.0,-19.0,162.0,7.0,-15.0,-9.0,10.3,-8.4,-1.5,-0.19,0.17,-0.96,0.12,0.0,0.0,0.0
1752780759844,357.0,-14.0,178.0,4.0,-0.0,-8.0,6.3,-0.0,1.1,-0.12,0.06,-0.99,0.04,0.0,0.0,0.0
1752780759895,11.0,-12.0,-176.0,1.0,9.0,-8.0,2.7,6.8,0.9,-0.1,-0.1,-0.99,-0.02,0.0,0.0,0.0
1752780759928,31.0,-8.0,-164.0,1.0,10.0,-9.0,-0.2,6.2,1.7,-0.1,-0.26,-0.95,-0.11,0.0,0.0,0.0
1752780759961,45.0,-2.0,-167.0,2.0,-1.0,-3.0,4.3,1.0,5.1,-0.06,-0.38,-0.92,-0.1,0.0,0.0,0.0
1752780759996,57.0,12.0,-165.0,9.0,9.0,-12.0,5.8,8.1,-5.1,0.03,-0.47,-0.87,-0.17,0.0,0.0,0.0
1752780760042,66.0,26.0,-163.0,7.0,2.0,-13.0,3.0,0.1,-4.2,0.12,-0.52,-0.81,-0.24,0.0,0.0,0.0
1752780760192,72.0,22.0,-170.0,3.0,5.0,-7.0,-0.6,3.7,1.9,0.11,-0.53,-0.82,-0.18,0.0,0.0,0.0
1752780760227,73.0,21.0,-171.0,4.0,1.0,-8.0,1.8,-0.8,-0.4,0.11,-0.58,-0.79,-0.17,0.0,0.0,0.0
1752780760262,73.0,22.0,-170.0,5.0,4.0,-10.0,1.7,3.5,-0.6,0.11,-0.58,-0.79,-0.18,0.0,0.0,0.0
1752780760296,72.0,19.0,-169.0,7.0,8.0,-11.0,3.8,7.8,-1.2,0.08,-0.58,-0.79,-0.17,0.0,0.0,0.0
1752780760346,68.0,9.0,-167.0,5.0,21.0,1.0,3.8,18.8,10.8,0.02,-0.56,-0.81,-0.15,0.0,0.0,0.0
1752780760387,56.0,4.0,-167.0,30.0,18.0,-11.0,29.2,16.5,-1.3,-0.02,-0.46,-0.88,-0.12,0.0,0.0,0.0
1752780760429,18.0,1.0,-175.0,37.0,-8.0,-6.0,31.3,-12.2,5.7,0.0,-0.16,-0.99,-0.05,0.0,0.0,0.0
1752780760460,334.0,-5.0,170.0,9.0,-23.0,-3.0,5.9,-11.0,5.7,-0.07,0.22,-0.97,0.08,0.0,0.0,0.0
1752780760497,321.0,-9.0,159.0,1.0,-15.0,-4.0,1.4,-15.5,4.9,-0.13,0.32,-0.93,0.14,0.0,0.0,0.0
1752780760645,307.0,-6.0,149.0,-1.0,-7.0,-7.0,0.0,-1.6,1.5,-0.17,0.43,-0.86,0.21,0.0,0.0,0.0
1752780760689,306.0,-6.0,148.0,-0.0,-8.0,-8.0,0.6,-1.5,-0.6,-0.17,0.43,-0.86,0.22,0.0,0.0,0.0
1752780760739,307.0,-6.0,147.0,-1.0,-5.0,-8.0,-0.1,0.1,0.2,-0.17,0.43,-0.86,0.23,0.0,0.0,0.0
1752780760776,308.0,-6.0,148.0,-1.0,-6.0,-8.0,-0.1,-0.9,0.3,-0.17,0.42,-0.86,0.22,0.0,0.0,0.0
1752780760824,310.0,-7.0,148.0,-1.0,-7.0,-7.0,-0.2,-2.8,1.7,-0.17,0.41,-0.87,0.22,0.0,0.0,0.0
1752780760862,313.0,-8.0,149.0,-2.0,-10.0,-8.0,0.4,-12.3,0.8,-0.18,0.38,-0.88,0.22,0.0,0.0,0.0
1752780760901,318.0,-10.0,151.0,3.0,-17.0,-4.0,6.3,-11.4,4.4,-0.17,0.34,-0.9,0.2,0.0,0.0,0.0
1752780761055,36.0,5.0,-162.0,5.0,12.0,-11.0,3.6,7.1,-0.9,-0.01,-0.27,-0.95,-0.15,0.0,0.0,0.0
1752780761090,48.0,10.0,-162.0,3.0,11.0,-11.0,0.9,1.6,0.7,0.02,-0.38,-0.91,-0.17,0.0,0.0,0.0
1752780761137,52.0,11.0,-163.0,5.0,2.0,-10.0,2.5,-1.0,-1.0,0.02,-0.43,-0.88,-0.18,0.0,0.0,0.0
1752780761175,57.0,14.0,-164.0,4.0,9.0,-9.0,0.8,5.1,0.1,0.04,-0.47,-0.86,-0.18,0.0,0.0,0.0
1752780761209,59.0,15.0,-164.0,4.0,1.0,-11.0,2.3,-2.7,-1.6,0.05,-0.49,-0.85,-0.19,0.0,0.0,0.0
1752780761260,60.0,15.0,-163.0,4.0,8.0,-10.0,0.3,4.4,0.2,0.05,-0.49,-0.85,-0.19,0.0,0.0,0.0
1752780761402,59.0,13.0,-164.0,10.0,17.0,-7.0,11.5,10.4,5.8,0.04,-0.49,-0.85,-0.18,0.0,0.0,0.0
1752780761445,24.0,-4.0,-169.0,18.0,3.0,-7.0,19.4,1.3,2.0,-0.04,-0.26,-0.96,-0.1,0.0,0.0,0.0
1752780761525,335.0,-12.0,164.0,4.0,-14.0,-2.0,3.2,-11.9,7.2,-0.13,0.21,-0.96,0.11,0.0,0.0,0.0
1752780761560,317.0,-12.0,152.0,-2.0,-24.0,-3.0,-1.6,-15.3,6.7,-0.19,0.35,-0.9,0.18,0.0,0.0,0.0
1752780761612,310.0,-11.0,148.0,-1.0,-8.0,-8.0,0.9,-3.1,0.4,-0.21,0.4,-0.87,0.2,0.0,0.0,0.0
1752780761659,312.0,-9.0,148.0,-1.0,-5.0,-7.0,0.3,-1.1,1.4,-0.19,0.4,-0.87,0.21,0.0,0.0,0.0
1752780762005,334.0,-11.0,151.0,2.0,-7.0,-6.0,3.5,-3.0,2.3,-0.16,0.24,-0.93,0.22,0.0,0.0,0.0
1752780762046,344.0,-10.0,160.0,3.0,-2.0,-12.0,4.6,1.2,-3.1,-0.12,0.16,-0.96,0.18,0.0,0.0,0.0
1752780762097,350.0,-10.0,167.0,1.0,-1.0,-8.0,2.7,1.0,1.3,-0.1,0.08,-0.99,0.11,0.0,0.0,0.0
1752780762131,360.0,-12.0,174.0,-1.0,6.0,-10.0,0.9,6.9,-0.8,-0.11,0.0,-0.99,0.05,0.0,0.0,0.0
1752780762164,8.0,-12.0,179.0,0.0,-0.0,-11.0,2.2,0.1,-1.7,-0.11,-0.06,-0.99,0.02,0.0,0.0,0.0
1752780762310,17.0,-17.0,-177.0,-0.0,4.0,-9.0,0.6,11.3,-2.1,-0.09,-0.08,-0.99,0.01,0.0,0.0,0.0
1752780762346,30.0,-13.0,-170.0,-1.0,-10.0,-5.0,1.6,-11.6,4.3,-0.13,-0.24,-0.96,-0.06,0.0,0.0,0.0
1752780762394,38.0,-10.0,-168.0,2.0,14.0,-11.0,2.8,11.4,-1.3,-0.12,-0.32,-0.94,-0.07,0.0,0.0,0.0
1752780762423,55.0,-4.0,-168.0,-0.0,8.0,-8.0,0.6,1.7,1.7,-0.08,-0.46,-0.88,-0.08,0.0,0.0,0.0
1752780762464,59.0,-2.0,-170.0,2.0,5.0,-10.0,3.0,4.8,-1.1,-0.06,-0.49,-0.87,-0.07,0.0,0.0,0.0
1752780762506,62.0,1.0,-171.0,5.0,15.0,-13.0,5.7,14.6,-4.2,-0.04,-0.51,-0.85,-0.07,0.0,0.0,0.0
1752780762748,349.0,-16.0,162.0,-3.0,-5.0,-6.0,0.6,-0.8,2.4,-0.06,-0.48,-0.87,-0.07,0.0,0.0,0.0
1752780762885,324.0,-21.0,154.0,-3.0,-5.0,-8.0,0.4,-0.6,0.2,-0.25,0.3,-0.91,0.14,0.0,0.0,0.0
1752780762924,323.0,-22.0,149.0,-4.0,-6.0,-7.0,0.3,-2.4,1.5,-0.26,0.3,-0.9,0.17,0.0,0.0,0.0
1752780762961,324.0,-22.0,147.0,-3.0,-4.0,-7.0,0.3,0.9,0.4,-0.27,0.29,-0.9,0.19,0.0,0.0,0.0
1752780763004,327.0,-21.0,142.0,-3.0,-7.0,-7.0,0.6,-1.6,0.3,-0.27,0.27,-0.89,0.23,0.0,0.0,0.0
1752780763045,87.0,-22.0,138.0,-4.0,-6.0,-5.0,-0.5,-0.0,1.8,-0.28,0.26,-0.89,0.27,0.0,0.0,0.0
1752780763086,93.0,-22.0,134.0,-3.0,-8.0,-5.0,0.5,-1.1,0.7,-0.29,0.22,-0.88,0.3,0.0,0.0,0.0
1752780763124,100.0,-22.0,131.0,-3.0,-9.0,-6.0,0.4,-1.4,0.6,-0.28,0.19,-0.88,0.34,0.0,0.0,0.0
1752780763162,99.0,-22.0,132.0,-4.0,-7.0,-5.0,0.0,-0.1,1.3,-0.28,0.18,-0.88,0.33,0.0,0.0,0.0
1752780763202,98.0,-22.0,134.0,-3.0,-7.0,-6.0,0.2,-0.6,0.4,-0.28,0.18,-0.89,0.32,0.0,0.0,0.0
1752780763346,96.0,-23.0,135.0,-4.0,-9.0,-4.0,0.6,-3.0,2.9,-0.28,0.17,-0.89,0.31,0.0,0.0,0.0
1752780763387,86.0,-26.0,138.0,-4.0,-5.0,-5.0,0.0,0.7,2.0,-0.3,0.17,-0.9,0.28,0.0,0.0,0.0
1752780763435,82.0,-28.0,141.0,-3.0,-4.0,-8.0,1.5,1.1,-2.2,-0.3,0.14,-0.91,0.26,0.0,0.0,0.0
1752780763668,68.0,-39.0,116.0,-4.0,-9.0,-2.0,1.8,-4.3,2.1,-0.3,0.12,-0.91,0.25,0.0,0.0,0.0
1752780763715,69.0,-35.0,118.0,-8.0,-9.0,-1.0,-2.4,-1.5,2.5,-0.47,0.24,-0.79,0.32,0.0,0.0,0.0
1752780763751,82.0,-30.0,121.0,-7.0,-10.0,-9.0,-2.3,-3.1,-4.5,-0.42,0.23,-0.81,0.34,0.0,0.0,0.0
1752780763792,90.0,-28.0,123.0,1.0,-2.0,-6.0,6.1,4.9,-1.6,-0.36,0.19,-0.84,0.36,0.0,0.0,0.0
1752780763832,81.0,-34.0,122.0,-4.0,-6.0,-6.0,0.6,-0.8,0.6,-0.39,0.16,-0.84,0.35,0.0,0.0,0.0
1752780763867,77.0,-37.0,116.0,-6.0,-13.0,3.0,-0.2,-6.0,5.6,-0.44,0.16,-0.81,0.35,0.0,0.0,0.0
1752780763910,73.0,-43.0,116.0,-5.0,-3.0,-5.0,1.6,3.2,-1.9,-0.47,0.12,-0.79,0.36,0.0,0.0,0.0
1752780763952,65.0,-48.0,121.0,-4.0,-4.0,-3.0,2.4,0.7,2.2,-0.48,0.08,-0.82,0.31,0.0,0.0,0.0
1752780763998,67.0,-50.0,116.0,-7.0,-8.0,-0.0,0.4,-2.2,2.6,-0.5,0.05,-0.8,0.32,0.0,0.0,0.0
1752780764048,74.0,-49.0,114.0,-5.0,-8.0,0.0,1.9,-0.9,1.8,-0.49,0.02,-0.79,0.36,0.0,0.0,0.0
1752780764085,69.0,-54.0,114.0,-7.0,7.0,-11.0,0.0,3.6,-0.0,-0.5,-0.01,-0.79,0.36,0.0,0.0,0.0
1752780764333,57.0,-56.0,60.0,-2.0,-16.0,2.0,1.3,0.6,-0.4,-0.7,0.02,-0.6,0.38,0.0,0.0,0.0
1752780764369,44.0,-58.0,50.0,-7.0,-8.0,5.0,0.7,-4.4,3.1,-0.76,0.03,-0.58,0.31,0.0,0.0,0.0
1752780764521,343.0,-87.0,177.0,-5.0,-10.0,2.0,4.4,-9.2,2.6,-0.76,0.1,-0.62,0.16,0.0,0.0,0.0
1752780764554,336.0,-88.0,-179.0,-3.0,-3.0,5.0,6.9,-3.1,5.2,-0.68,0.15,-0.7,-0.14,0.0,0.0,0.0
1752780764601,336.0,-84.0,-176.0,-3.0,1.0,0.0,6.6,0.1,1.3,-0.67,0.1,-0.73,-0.14,0.0,0.0,0.0
1752780764635,344.0,-80.0,-138.0,-5.0,3.0,-1.0,4.3,2.4,-1.4,-0.65,0.02,-0.75,-0.09,0.0,0.0,0.0
1752780764669,337.0,-68.0,-140.0,-6.0,6.0,-5.0,-1.1,-3.3,0.4,-0.59,-0.04,-0.8,-0.12,0.0,0.0,0.0
1752780764719,326.0,-56.0,-142.0,-7.0,7.0,-13.0,0.0,4.6,-5.7,-0.5,-0.08,-0.85,-0.15,0.0,0.0,0.0
1752780764778,321.0,-44.0,-148.0,-4.0,1.0,-22.0,2.2,-2.3,-15.4,-0.43,-0.14,-0.88,-0.15,0.0,0.0,0.0
1752780764799,320.0,-43.0,-146.0,-7.0,8.0,-8.0,-0.3,3.8,-2.3,-0.42,-0.17,-0.88,-0.15,0.0,0.0,0.0
1752780764833,328.0,-51.0,-145.0,-11.0,-5.0,-4.0,-4.9,5.8,-4.9,-0.47,-0.14,-0.86,-0.13,0.0,0.0,0.0
1752780764868,317.0,-52.0,-139.0,-7.0,7.0,-2.0,-1.0,-1.9,4.5,-0.48,-0.08,-0.85,-0.19,0.0,0.0,0.0
1752780764910,328.0,-54.0,-142.0,-9.0,8.0,-3.0,-1.0,5.0,1.5,-0.5,-0.11,-0.85,-0.15,0.0,0.0,0.0
1752780764954,333.0,-50.0,-157.0,-9.0,-4.0,-7.0,-1.6,-6.6,-0.9,-0.45,-0.08,-0.88,-0.11,0.0,0.0,0.0
1752780765005,335.0,-51.0,-158.0,-8.0,-0.0,-5.0,0.5,0.0,-1.2,-0.44,-0.07,-0.89,-0.1,0.0,0.0,0.0
1752780765052,317.0,-51.0,-142.0,-3.0,-0.0,1.0,-4.2,0.0,-5.9,-0.47,-0.07,-0.86,-0.18,0.0,0.0,0.0
1752780765090,299.0,-52.0,-121.0,-12.0,4.0,-7.0,-2.9,0.7,-3.3,-0.49,-0.06,-0.83,-0.26,0.0,0.0,0.0
1752780765232,316.0,-41.0,-32.0,-4.0,11.0,7.0,0.9,1.1,0.5,-0.84,-0.07,-0.42,-0.34,0.0,0.0,0.0
1752780765275,314.0,-32.0,-27.0,-2.0,2.0,6.0,4.1,-4.3,-2.8,-0.86,-0.08,-0.34,-0.36,0.0,0.0,0.0
1752780765308,312.0,-25.0,-23.0,-5.0,-1.0,7.0,-2.3,-1.9,-2.7,-0.88,-0.08,-0.27,-0.39,0.0,0.0,0.0
1752780765459,308.0,-18.0,-15.0,-1.0,-3.0,11.0,3.0,-3.6,2.4,-0.88,-0.04,-0.21,-0.42,0.0,0.0,0.0
1752780765591,305.0,-29.0,-5.0,-6.0,-2.0,6.0,-0.5,-1.4,-2.3,-0.86,0.09,-0.24,-0.45,0.0,0.0,0.0
1752780765644,311.0,-35.0,4.0,-4.0,-6.0,6.0,1.2,-4.7,-2.1,-0.87,0.15,-0.27,-0.4,0.0,0.0,0.0
1752780765674,312.0,-34.0,5.0,-3.0,-4.0,7.0,3.5,-3.7,-0.5,-0.87,0.15,-0.25,-0.38,0.0,0.0,0.0
1752780765710,312.0,-32.0,5.0,0.0,-7.0,8.0,5.5,-5.8,-0.0,-0.88,0.15,-0.24,-0.39,0.0,0.0,0.0
1752780765751,305.0,-30.0,4.0,3.0,-6.0,10.0,8.1,-5.9,1.7,-0.86,0.15,-0.22,-0.43,0.0,0.0,0.0
1752780765794,298.0,-28.0,4.0,5.0,-7.0,13.0,9.6,-6.6,4.5,-0.83,0.15,-0.19,-0.5,0.0,0.0,0.0
1752780765834,282.0,-25.0,3.0,10.0,-3.0,11.0,13.0,1.6,5.3,-0.76,0.15,-0.15,-0.62,0.0,0.0,0.0
1752780765875,256.0,-20.0,-2.0,6.0,13.0,24.0,7.5,13.0,12.4,-0.6,0.13,-0.12,-0.78,0.0,0.0,0.0
1752780765909,228.0,-21.0,1.0,4.0,14.0,14.0,4.0,13.9,4.1,-0.4,0.17,-0.06,-0.9,0.0,0.0,0.0
1752780765952,202.0,-28.0,-2.0,-6.0,13.0,9.0,-0.9,12.0,0.5,-0.21,0.22,-0.05,-0.95,0.0,0.0,0.0
1752780765992,196.0,-32.0,-8.0,-4.0,9.0,7.0,1.1,7.6,-0.8,-0.13,0.27,-0.1,-0.95,0.0,0.0,0.0
1752780766035,191.0,-36.0,-15.0,-6.0,8.0,6.0,0.4,5.5,-2.8,-0.09,0.3,-0.14,-0.94,0.0,0.0,0.0
1752780766076,187.0,-39.0,-19.0,-7.0,7.0,3.0,-0.8,3.8,-5.4,-0.06,0.33,-0.16,-0.93,0.0,0.0,0.0
1752780766111,186.0,-39.0,-23.0,-6.0,7.0,3.0,0.5,3.1,-2.5,-0.05,0.33,-0.18,-0.92,0.0,0.0,0.0
1752780766261,188.0,-39.0,-26.0,-7.0,7.0,5.0,-0.6,3.3,-1.4,-0.06,0.33,-0.2,-0.92,0.0,0.0,0.0
1752780766293,201.0,-41.0,-28.0,-8.0,8.0,6.0,-1.4,4.3,-0.9,-0.17,0.31,-0.25,-0.9,0.0,0.0,0.0
1752780766335,208.0,-41.0,-25.0,-7.0,8.0,6.0,-1.0,5.1,-0.5,-0.22,0.3,-0.26,-0.89,0.0,0.0,0.0
1752780766370,217.0,-42.0,-23.0,-10.0,11.0,6.0,-4.0,7.9,-0.5,-0.29,0.29,-0.27,-0.87,0.0,0.0,0.0
1752780766411,233.0,-44.0,-21.0,-5.0,7.0,8.0,3.1,3.1,1.5,-0.41,0.27,-0.3,-0.82,0.0,0.0,0.0
1752780766660,322.0,-31.0,11.0,2.0,-5.0,8.0,6.5,-3.7,-0.4,-0.9,0.17,-0.22,-0.32,0.0,0.0,0.0
1752780766800,324.0,-30.0,10.0,5.0,-2.0,11.0,9.6,-2.6,2.5,-0.91,0.16,-0.22,-0.3,0.0,0.0,0.0
1752780766832,299.0,-30.0,-7.0,7.0,2.0,13.0,11.2,2.4,4.9,-0.83,0.08,-0.25,-0.49,0.0,0.0,0.0
1752780766870,273.0,-25.0,-15.0,7.0,14.0,14.0,9.6,12.6,5.5,-0.7,0.06,-0.24,-0.67,0.0,0.0,0.0
1752780766910,242.0,-17.0,-17.0,1.0,19.0,12.0,-0.2,16.0,1.9,-0.5,0.06,-0.2,-0.84,0.0,0.0,0.0
1752780766952,214.0,-14.0,-15.0,-4.0,11.0,7.0,-1.5,8.8,-2.5,-0.31,0.07,-0.16,-0.93,0.0,0.0,0.0
1752780766999,207.0,-15.0,-17.0,-4.0,4.0,8.0,-1.4,0.7,0.4,-0.23,0.1,-0.17,-0.95,0.0,0.0,0.0
1752780767052,201.0,-19.0,-22.0,-7.0,9.0,2.0,-3.8,5.5,-6.5,-0.18,0.13,-0.21,-0.95,0.0,0.0,0.0
1752780767086,197.0,-20.0,-24.0,-6.0,8.0,4.0,-2.3,4.2,-3.3,-0.14,0.15,-0.22,-0.95,0.0,0.0,0.0
1752780767126,197.0,-20.0,-24.0,-5.0,8.0,6.0,-2.1,4.0,-3.1,-0.14,0.15,-0.22,-0.95,0.0,0.0,0.0
1752780767268,198.0,-20.0,-24.0,-6.0,9.0,6.0,-2.5,6.4,-2.4,-0.15,0.15,-0.22,-0.95,0.0,0.0,0.0
1752780767405,218.0,-20.0,-20.0,-1.0,7.0,9.0,3.2,4.9,0.2,-0.29,0.12,-0.22,-0.92,0.0,0.0,0.0
1752780767446,276.0,-25.0,-14.0,2.0,5.0,11.0,5.9,3.1,2.6,-0.72,0.06,-0.24,-0.65,0.0,0.0,0.0
1752780767792,342.0,-31.0,13.0,2.0,-6.0,7.0,7.9,-3.9,-1.0,-0.93,0.09,-0.21,-0.29,0.0,0.0,0.0
1752780767825,333.0,-33.0,8.0,4.0,-5.0,9.0,9.6,-4.4,0.7,-0.94,0.13,-0.26,-0.2,0.0,0.0,0.0
1752780767872,316.0,-35.0,-1.0,5.0,1.0,9.0,10.8,0.1,0.6,-0.9,0.11,-0.27,-0.31,0.0,0.0,0.0
1752780767908,289.0,-30.0,-14.0,7.0,10.0,10.0,11.4,7.8,1.6,-0.81,0.08,-0.28,-0.5,0.0,0.0,0.0
1752780767958,265.0,-20.0,-19.0,3.0,18.0,15.0,3.0,15.1,6.1,-0.66,0.02,-0.24,-0.72,0.0,0.0,0.0
1752780767999,234.0,-5.0,-18.0,-3.0,15.0,12.0,-2.5,12.3,2.5,-0.45,-0.03,-0.16,-0.88,0.0,0.0,0.0
1752780768042,224.0,-7.0,-20.0,-2.0,8.0,9.0,-0.4,4.2,0.6,-0.37,-0.0,-0.18,-0.91,0.0,0.0,0.0
1752780768075,220.0,-11.0,-23.0,-4.0,6.0,8.0,-2.4,2.7,-1.2,-0.34,0.03,-0.21,-0.92,0.0,0.0,0.0
1752780768116,216.0,-13.0,-21.0,-7.0,8.0,6.0,-4.3,4.1,-4.0,-0.3,0.05,-0.21,-0.93,0.0,0.0,0.0
1752780768156,214.0,-14.0,-22.0,-5.0,6.0,5.0,-3.0,2.3,-3.3,-0.29,0.07,-0.22,-0.93,0.0,0.0,0.0
1752780768209,215.0,-15.0,-23.0,-4.0,6.0,7.0,-1.8,1.8,-1.8,-0.29,0.07,-0.22,-0.93,0.0,0.0,0.0
1752780768259,216.0,-15.0,-24.0,-4.0,6.0,7.0,-1.7,2.0,-1.7,-0.3,0.06,-0.23,-0.92,0.0,0.0,0.0
1752780768292,218.0,-15.0,-24.0,-4.0,7.0,8.0,-1.8,3.3,-0.9,-0.31,0.06,-0.24,-0.92,0.0,0.0,0.0
1752780768339,222.0,-15.0,-24.0,-5.0,8.0,7.0,-2.5,5.9,-1.3,-0.35,0.05,-0.24,-0.91,0.0,0.0,0.0
1752780768373,229.0,-16.0,-26.0,-6.0,15.0,7.0,-3.6,10.6,0.5,-0.4,0.04,-0.26,-0.88,0.0,0.0,0.0
1752780768426,244.0,-22.0,-30.0,-4.0,13.0,11.0,1.1,7.5,3.0,-0.51,0.04,-0.31,-0.8,0.0,0.0,0.0
1752780768459,271.0,-34.0,-30.0,-1.0,8.0,8.0,4.7,3.8,1.0,-0.63,0.05,-0.36,-0.68,0.0,0.0,0.0
1752780768509,287.0,-40.0,-23.0,-2.0,2.0,6.0,4.8,-0.1,-1.4,-0.74,0.07,-0.38,-0.55,0.0,0.0,0.0
1752780768543,304.0,-41.0,-12.0,-2.0,1.0,5.0,4.3,-0.3,-2.1,-0.82,0.09,-0.35,-0.44,0.0,0.0,0.0
1752780768576,318.0,-39.0,-3.0,-2.0,-0.0,8.0,4.3,-0.2,0.9,-0.88,0.1,-0.32,-0.33,0.0,0.0,0.0
1752780768628,331.0,-35.0,2.0,-1.0,-2.0,9.0,5.1,-1.4,0.8,-0.92,0.09,-0.29,-0.24,0.0,0.0,0.0
1752780768764,347.0,-30.0,5.0,-0.0,-3.0,10.0,5.8,-2.6,1.0,-0.96,0.07,-0.26,-0.11,0.0,0.0,0.0
1752780768805,345.0,-31.0,3.0,1.0,-3.0,9.0,7.0,-3.0,0.3,-0.96,0.06,-0.26,-0.12,0.0,0.0,0.0
1752780768847,338.0,-32.0,-1.0,5.0,-1.0,10.0,9.7,-1.9,1.8,-0.94,0.04,-0.27,-0.19,0.0,0.0,0.0
1752780768886,323.0,-31.0,-7.0,6.0,-0.0,11.0,10.6,-1.3,1.7,-0.91,0.03,-0.27,-0.3,0.0,0.0,0.0
1752780768924,301.0,-30.0,-19.0,8.0,8.0,11.0,12.2,6.8,1.8,-0.83,0.0,-0.3,-0.47,0.0,0.0,0.0
1752780768964,269.0,-23.0,-30.0,7.0,19.0,10.0,8.7,15.8,2.9,-0.66,-0.02,-0.32,-0.68,0.0,0.0,0.0
1752780769007,229.0,-10.0,-27.0,-5.0,19.0,7.0,-3.2,15.0,-1.8,-0.45,-0.02,-0.26,-0.86,0.0,0.0,0.0
1752780769055,217.0,-10.0,-28.0,-4.0,12.0,5.0,-2.4,7.2,-3.5,-0.31,0.01,-0.25,-0.92,0.0,0.0,0.0
1752780769088,214.0,-13.0,-35.0,-4.0,10.0,8.0,-2.0,4.3,0.1,-0.28,0.03,-0.31,-0.91,0.0,0.0,0.0
1752780769127,213.0,-15.0,-36.0,-5.0,7.0,5.0,-3.0,2.2,-3.3,-0.27,0.04,-0.33,-0.91,0.0,0.0,0.0
1752780769165,211.0,-15.0,-35.0,-5.0,8.0,5.0,-2.5,2.5,-2.1,-0.25,0.05,-0.32,-0.91,0.0,0.0,0.0
1752780769217,212.0,-15.0,-36.0,-4.0,8.0,6.0,-1.7,2.3,-1.7,-0.26,0.05,-0.32,-0.91,0.0,0.0,0.0
1752780769258,212.0,-16.0,-35.0,-5.0,8.0,6.0,-1.7,2.8,-1.4,-0.26,0.06,-0.32,-0.91,0.0,0.0,0.0
1752780769298,215.0,-17.0,-35.0,-4.0,8.0,6.0,-1.7,2.5,-1.8,-0.28,0.06,-0.33,-0.9,0.0,0.0,0.0
1752780769447,247.0,-26.0,-37.0,-4.0,10.0,5.0,0.9,4.5,-2.4,-0.51,0.03,-0.37,-0.77,0.0,0.0,0.0
1752780769475,266.0,-28.0,-34.0,-1.0,6.0,7.0,3.5,0.1,0.1,-0.63,0.01,-0.37,-0.68,0.0,0.0,0.0
1752780769516,281.0,-27.0,-28.0,-1.0,3.0,8.0,4.0,-1.5,1.0,-0.73,-0.01,-0.33,-0.6,0.0,0.0,0.0
1752780769565,295.0,-25.0,-22.0,0.0,1.0,10.0,4.0,-2.4,1.1,-0.8,-0.03,-0.29,-0.53,0.0,0.0,0.0
1752780769605,302.0,-23.0,-19.0,-0.0,0.0,9.0,3.2,-2.3,0.2,-0.84,-0.03,-0.26,-0.48,0.0,0.0,0.0
1752780769761,308.0,-20.0,-17.0,-1.0,1.0,8.0,2.3,-2.0,-0.5,-0.88,-0.04,-0.22,-0.43,0.0,0.0,0.0
1752780769790,306.0,-21.0,-17.0,-1.0,0.0,9.0,3.0,-2.6,0.5,-0.87,-0.04,-0.22,-0.44,0.0,0.0,0.0
1752780769828,304.0,-21.0,-17.0,2.0,-1.0,10.0,6.0,-4.4,2.2,-0.86,-0.04,-0.23,-0.46,0.0,0.0,0.0
1752780769866,297.0,-23.0,-19.0,4.0,-3.0,11.0,8.5,-4.6,2.1,-0.83,-0.03,-0.25,-0.5,0.0,0.0,0.0
1752780769911,276.0,-24.0,-26.0,4.0,8.0,9.0,8.1,3.8,0.6,-0.74,-0.01,-0.29,-0.6,0.0,0.0,0.0
1752780770056,256.0,-22.0,-31.0,-2.0,17.0,8.0,-1.8,2.1,-2.5,-0.59,0.0,-0.32,-0.74,0.0,0.0,0.0
1752780770099,210.0,-25.0,-42.0,-7.0,9.0,4.0,-2.5,2.2,-3.1,-0.24,0.13,-0.38,-0.88,0.0,0.0,0.0
1752780770146,209.0,-25.0,-43.0,-6.0,7.0,4.0,-2.0,1.6,-2.2,-0.23,0.14,-0.38,-0.88,0.0,0.0,0.0
1752780770179,209.0,-25.0,-43.0,-5.0,8.0,6.0,-0.9,2.1,-0.2,-0.22,0.14,-0.39,-0.88,0.0,0.0,0.0
1752780770233,209.0,-25.0,-44.0,-6.0,9.0,4.0,-1.8,2.4,-2.0,-0.23,0.14,-0.39,-0.88,0.0,0.0,0.0
1752780770266,209.0,-25.0,-44.0,-6.0,8.0,5.0,-1.4,1.7,-1.8,-0.23,0.14,-0.39,-0.88,0.0,0.0,0.0
1752780770508,269.0,-33.0,-34.0,-3.0,5.0,6.0,2.9,-0.4,-1.4,-0.62,0.04,-0.4,-0.67,0.0,0.0,0.0
1752780770658,298.0,-24.0,-20.0,-2.0,2.0,8.0,2.3,-1.3,-0.2,-0.83,-0.03,-0.27,-0.5,0.0,0.0,0.0
1752780770705,301.0,-23.0,-19.0,-1.0,1.0,10.0,2.3,-1.6,1.4,-0.84,-0.04,-0.25,-0.48,0.0,0.0,0.0
1752780770752,301.0,-22.0,-19.0,-2.0,2.0,9.0,1.7,-1.5,0.5,-0.84,-0.04,-0.25,-0.47,0.0,0.0,0.0
1752780770982,231.0,-32.0,-44.0,-8.0,12.0,0.0,-3.2,6.0,-5.6,-0.84,-0.04,-0.25,-0.48,0.0,0.0,0.0
1752780771021,222.0,-32.0,-47.0,-8.0,9.0,1.0,-2.9,2.5,-4.5,-0.33,0.15,-0.43,-0.83,0.0,0.0,0.0
1752780771062,220.0,-32.0,-50.0,-7.0,8.0,4.0,-1.9,1.8,-1.5,-0.3,0.16,-0.44,-0.83,0.0,0.0,0.0
1752780771104,220.0,-32.0,-51.0,-7.0,7.0,3.0,-1.6,0.6,-1.9,-0.3,0.16,-0.46,-0.82,0.0,0.0,0.0
1752780771153,219.0,-32.0,-52.0,-7.0,8.0,4.0,-1.8,1.8,-1.0,-0.29,0.16,-0.46,-0.83,0.0,0.0,0.0
1752780771193,219.0,-32.0,-52.0,-6.0,8.0,5.0,-0.7,1.1,-0.4,-0.29,0.16,-0.46,-0.82,0.0,0.0,0.0
1752780771231,219.0,-32.0,-53.0,-6.0,8.0,4.0,-1.2,0.7,-1.3,-0.29,0.15,-0.47,-0.82,0.0,0.0,0.0
1752780771277,220.0,-32.0,-52.0,-6.0,7.0,4.0,-0.9,0.3,-0.7,-0.29,0.16,-0.47,-0.82,0.0,0.0,0.0
1752780771327,221.0,-32.0,-52.0,-5.0,6.0,5.0,-0.2,-0.3,-0.4,-0.3,0.16,-0.47,-0.82,0.0,0.0,0.0
1752780771362,221.0,-33.0,-52.0,-6.0,6.0,4.0,-0.9,-0.2,-1.1,-0.3,0.16,-0.47,-0.82,0.0,0.0,0.0
1752780771398,221.0,-33.0,-52.0,-6.0,6.0,5.0,-0.4,-0.4,-0.3,-0.31,0.16,-0.47,-0.81,0.0,0.0,0.0
1752780771451,222.0,-33.0,-52.0,-6.0,6.0,4.0,-0.8,-0.3,-0.8,-0.31,0.16,-0.47,-0.81,0.0,0.0,0.0
1752780771494,222.0,-33.0,-52.0,-6.0,6.0,5.0,-0.4,-0.2,-0.2,-0.31,0.16,-0.47,-0.81,0.0,0.0,0.0
1752780771532,223.0,-34.0,-52.0,-6.0,6.0,5.0,-0.5,-0.1,-0.3,-0.32,0.16,-0.47,-0.81,0.0,0.0,0.0
1752780771676,224.0,-36.0,-53.0,-6.0,6.0,4.0,-0.4,0.0,-0.3,-0.32,0.18,-0.48,-0.8,0.0,0.0,0.0
1752780771826,224.0,-37.0,-54.0,-6.0,6.0,5.0,-0.1,0.0,0.1,-0.32,0.18,-0.48,-0.8,0.0,0.0,0.0
1752780771880,223.0,-37.0,-54.0,-6.0,6.0,4.0,-0.3,0.1,-0.2,-0.32,0.18,-0.48,-0.8,0.0,0.0,0.0
1752780771921,223.0,-37.0,-54.0,-6.0,7.0,4.0,-0.5,0.2,-0.3,-0.32,0.19,-0.48,-0.8,0.0,0.0,0.0
1752780771961,224.0,-37.0,-54.0,-7.0,7.0,4.0,-1.0,0.7,-0.3,-0.32,0.19,-0.48,-0.8,0.0,0.0,0.0
1752780771997,225.0,-37.0,-52.0,-7.0,7.0,4.0,-0.6,0.1,-0.8,-0.33,0.19,-0.47,-0.8,0.0,0.0,0.0
1752780772133,242.0,-43.0,-51.0,-7.0,6.0,5.0,0.0,0.0,0.5,-0.35,0.18,-0.46,-0.79,0.0,0.0,0.0
1752780772174,247.0,-46.0,-50.0,-7.0,5.0,5.0,0.2,-0.6,0.0,-0.47,0.18,-0.49,-0.71,0.0,0.0,0.0
1752780772231,250.0,-46.0,-48.0,-7.0,5.0,5.0,-0.1,-0.3,0.0,-0.49,0.17,-0.49,-0.7,0.0,0.0,0.0
1752780772269,252.0,-47.0,-46.0,-7.0,5.0,4.0,-0.1,-0.2,-0.3,-0.51,0.17,-0.48,-0.69,0.0,0.0,0.0
1752780772527,263.0,-49.0,-39.0,-7.0,4.0,5.0,-0.1,0.0,0.1,-0.52,0.18,-0.48,-0.69,0.0,0.0,0.0
1752780772661,271.0,-52.0,-33.0,-8.0,4.0,5.0,-0.3,0.3,0.1,-0.62,0.18,-0.46,-0.61,0.0,0.0,0.0
1752780772798,281.0,-57.0,-25.0,-8.0,2.0,5.0,0.0,-0.2,0.2,-0.63,0.19,-0.46,-0.59,0.0,0.0,0.0
1752780772838,284.0,-59.0,-22.0,-8.0,2.0,5.0,0.1,-0.3,-0.0,-0.68,0.22,-0.46,-0.53,0.0,0.0,0.0
1752780772875,286.0,-60.0,-19.0,-8.0,1.0,5.0,0.0,-0.2,0.1,-0.68,0.23,-0.46,-0.52,0.0,0.0,0.0
1752780772937,289.0,-62.0,-16.0,-8.0,1.0,5.0,0.4,-0.6,-0.1,-0.69,0.23,-0.46,-0.5,0.0,0.0,0.0
1752780772970,291.0,-63.0,-12.0,-8.0,0.0,4.0,0.2,-0.6,-0.2,-0.7,0.25,-0.46,-0.48,0.0,0.0,0.0
1752780773010,292.0,-63.0,-11.0,-9.0,1.0,4.0,-0.2,0.1,0.1,-0.7,0.25,-0.46,-0.48,0.0,0.0,0.0
1752780773051,293.0,-63.0,-8.0,-9.0,1.0,4.0,-0.1,0.0,0.1,-0.71,0.26,-0.46,-0.47,0.0,0.0,0.0
1752780773301,296.0,-64.0,-4.0,-9.0,1.0,4.0,0.3,-0.1,0.0,-0.71,0.27,-0.46,-0.46,0.0,0.0,0.0
1752780773437,324.0,-67.0,48.0,-9.0,-3.0,2.0,0.4,-0.5,-0.1,-0.76,0.35,-0.49,-0.25,0.0,0.0,0.0
1752780773578,326.0,-66.0,51.0,-9.0,-4.0,2.0,0.1,0.0,-0.2,-0.76,0.36,-0.5,-0.23,0.0,0.0,0.0
1752780773728,337.0,-62.0,70.0,-8.0,-5.0,2.0,0.3,-0.3,0.1,-0.75,0.4,-0.51,-0.15,0.0,0.0,0.0
1752780773868,339.0,-61.0,73.0,-9.0,-5.0,2.0,0.1,0.2,0.4,-0.74,0.41,-0.51,-0.14,0.0,0.0,0.0
1752780773918,346.0,-58.0,80.0,-8.0,-5.0,1.0,0.1,0.2,0.2,-0.73,0.42,-0.53,-0.09,0.0,0.0,0.0
1752780773963,349.0,-57.0,84.0,-8.0,-5.0,1.0,0.3,-0.0,0.7,-0.72,0.42,-0.54,-0.07,0.0,0.0,0.0
1752780774002,353.0,-56.0,88.0,-8.0,-6.0,0.0,0.2,0.1,0.2,-0.71,0.43,-0.55,-0.05,0.0,0.0,0.0
1752780774136,1.0,-51.0,99.0,-8.0,-6.0,-1.0,-0.0,0.0,0.1,-0.7,0.44,-0.56,-0.03,0.0,0.0,0.0
1752780774190,3.0,-50.0,102.0,-7.0,-6.0,0.0,0.2,0.1,1.5,-0.66,0.46,-0.59,0.01,0.0,0.0,0.0
1752780774224,3.0,-49.0,108.0,-8.0,-5.0,-2.0,-0.1,0.9,0.5,-0.64,0.48,-0.6,0.02,0.0,0.0,0.0
1752780774271,3.0,-48.0,114.0,-7.0,-6.0,-3.0,0.0,0.1,-0.5,-0.61,0.49,-0.62,0.01,0.0,0.0,0.0
1752780774316,3.0,-45.0,119.0,-7.0,-5.0,-3.0,0.2,0.6,0.3,-0.57,0.52,-0.63,0.02,0.0,0.0,0.0
1752780774563,278.0,-30.0,149.0,-4.0,-4.0,-8.0,0.7,0.2,0.0,-0.54,0.54,-0.65,0.01,0.0,0.0,0.0
1752780774614,278.0,-28.0,152.0,-4.0,-4.0,-7.0,0.8,0.4,0.8,-0.33,0.62,-0.71,0.0,0.0,0.0,0.0
1752780774648,278.0,-26.0,156.0,-4.0,-3.0,-7.0,0.6,0.5,0.7,-0.3,0.62,-0.72,-0.01,0.0,0.0,0.0
1752780774682,278.0,-24.0,160.0,-3.0,-3.0,-8.0,0.1,0.3,0.0,-0.26,0.63,-0.73,-0.01,0.0,0.0,0.0
1752780774754,278.0,-21.0,165.0,-4.0,-3.0,-10.0,-0.0,-0.4,-1.1,-0.23,0.64,-0.74,-0.02,0.0,0.0,0.0
1752780774796,279.0,-20.0,167.0,-3.0,-2.0,-9.0,0.2,0.3,0.1,-0.21,0.64,-0.74,-0.03,0.0,0.0,0.0
1752780774802,280.0,-20.0,169.0,-3.0,-1.0,-9.0,0.2,0.3,0.1,-0.19,0.63,-0.75,-0.04,0.0,0.0,0.0
1752780774840,280.0,-19.0,172.0,-3.0,-1.0,-10.0,-0.1,0.2,-0.4,-0.17,0.63,-0.76,-0.05,0.0,0.0,0.0
1752780774877,281.0,-18.0,174.0,-3.0,-1.0,-10.0,0.1,0.0,-0.4,-0.15,0.63,-0.76,-0.06,0.0,0.0,0.0
1752780774926,282.0,-17.0,177.0,-3.0,-0.0,-9.0,0.0,0.3,0.2,-0.14,0.62,-0.77,-0.07,0.0,0.0,0.0
1752780775173,284.0,-17.0,-175.0,-3.0,1.0,-9.0,0.0,-0.0,0.3,-0.09,0.61,-0.78,-0.12,0.0,0.0,0.0
1752780775424,279.0,-9.0,-170.0,-2.0,2.0,-10.0,-0.4,0.0,-0.6,-0.09,0.61,-0.78,-0.12,0.0,0.0,0.0
1752780775471,277.0,-7.0,-170.0,-1.0,2.0,-10.0,0.1,0.2,0.1,0.01,0.66,-0.75,-0.11,0.0,0.0,0.0
1752780775507,276.0,-5.0,-169.0,-1.0,2.0,-10.0,0.1,-0.0,-0.1,0.03,0.67,-0.74,-0.1,0.0,0.0,0.0
1752780775557,274.0,-2.0,-170.0,-1.0,3.0,-10.0,-0.5,0.7,0.0,0.04,0.68,-0.73,-0.08,0.0,0.0,0.0
1752780775591,273.0,-1.0,-169.0,-0.0,2.0,-9.0,-0.2,0.4,0.2,0.06,0.69,-0.72,-0.07,0.0,0.0,0.0
1752780775632,271.0,-0.0,-168.0,-0.0,2.0,-10.0,-0.2,0.5,-0.3,0.07,0.7,-0.71,-0.07,0.0,0.0,0.0
1752780775782,267.0,-1.0,-166.0,-2.0,4.0,-10.0,-0.0,-0.0,-0.6,0.08,0.71,-0.69,-0.09,0.0,0.0,0.0
1752780775925,242.0,-23.0,-154.0,-4.0,5.0,-9.0,-0.0,0.7,-0.7,0.07,0.81,-0.5,-0.28,0.0,0.0,0.0
1752780775966,239.0,-27.0,-153.0,-4.0,4.0,-7.0,1.3,-0.0,0.2,0.07,0.82,-0.47,-0.32,0.0,0.0,0.0
1752780776009,235.0,-32.0,-151.0,-5.0,4.0,-7.0,0.3,0.1,-0.3,0.06,0.83,-0.43,-0.35,0.0,0.0,0.0
1752780776042,231.0,-35.0,-151.0,-5.0,4.0,-7.0,0.6,0.3,0.1,0.06,0.83,-0.4,-0.38,0.0,0.0,0.0
1752780776084,164.0,-39.0,-149.0,-6.0,4.0,-6.0,0.4,0.2,0.2,0.06,0.84,-0.37,-0.4,0.0,0.0,0.0
1752780776235,164.0,-50.0,-145.0,-7.0,4.0,-5.0,0.4,0.1,-0.3,0.07,0.83,-0.27,-0.48,0.0,0.0,0.0
1752780776278,163.0,-53.0,-143.0,-8.0,4.0,-5.0,0.1,0.6,0.0,0.07,0.83,-0.24,-0.5,0.0,0.0,0.0
1752780776326,163.0,-54.0,-143.0,-8.0,4.0,-5.0,0.2,0.4,-0.3,0.08,0.83,-0.22,-0.51,0.0,0.0,0.0
1752780776364,164.0,-57.0,-142.0,-8.0,4.0,-4.0,-0.0,0.7,0.3,0.08,0.82,-0.2,-0.52,0.0,0.0,0.0
1752780776411,164.0,-59.0,-142.0,-8.0,3.0,-4.0,0.2,0.3,-0.0,0.08,0.82,-0.18,-0.54,0.0,0.0,0.0
1752780776552,163.0,-65.0,-141.0,-9.0,3.0,-3.0,0.1,0.3,-0.2,0.08,0.82,-0.16,-0.55,0.0,0.0,0.0
1752780776586,162.0,-67.0,-141.0,-9.0,3.0,-3.0,0.1,0.5,-0.2,0.09,0.8,-0.09,-0.58,0.0,0.0,0.0
1752780776634,162.0,-70.0,-140.0,-9.0,2.0,-3.0,0.6,0.1,-0.0,0.1,0.8,-0.06,-0.59,0.0,0.0,0.0
1752780776680,161.0,-72.0,-141.0,-9.0,2.0,-2.0,0.1,0.6,0.2,0.1,0.79,-0.03,-0.61,0.0,0.0,0.0
1752780776720,161.0,-74.0,-141.0,-10.0,2.0,-2.0,-0.1,0.7,0.5,0.11,0.78,-0.01,-0.62,0.0,0.0,0.0
1752780776762,159.0,-76.0,-141.0,-9.0,2.0,-1.0,0.3,0.4,0.5,0.11,0.77,0.01,-0.62,0.0,0.0,0.0
1752780776795,158.0,-78.0,-141.0,-9.0,2.0,-2.0,0.2,0.3,-0.2,0.12,0.76,0.04,-0.63,0.0,0.0,0.0
1752780776834,156.0,-79.0,-142.0,-10.0,2.0,-1.0,-0.5,1.0,0.5,0.13,0.76,0.06,-0.64,0.0,0.0,0.0
1752780776875,154.0,-81.0,-145.0,-10.0,1.0,-1.0,0.0,0.4,0.2,0.14,0.75,0.09,-0.64,0.0,0.0,0.0
1752780777022,152.0,-85.0,177.0,-9.0,-1.0,-1.0,0.5,0.2,-0.5,0.15,0.74,0.12,-0.64,0.0,0.0,0.0
1752780777067,152.0,-82.0,119.0,-10.0,-0.0,-0.0,-0.1,1.2,0.5,0.16,0.68,0.26,-0.66,0.0,0.0,0.0
1752780777111,153.0,-78.0,106.0,-10.0,-1.0,-0.0,0.1,0.4,-0.4,0.16,0.66,0.3,-0.67,0.0,0.0,0.0
1752780777257,158.0,-61.0,99.0,-8.0,-5.0,-1.0,0.6,0.1,-0.6,0.13,0.56,0.47,-0.67,0.0,0.0,0.0
1752780777304,161.0,-56.0,98.0,-7.0,-6.0,-1.0,1.3,-0.4,-0.3,0.11,0.53,0.51,-0.67,0.0,0.0,0.0
1752780777340,164.0,-52.0,96.0,-7.0,-5.0,0.0,0.5,1.3,0.7,0.09,0.51,0.53,-0.68,0.0,0.0,0.0
1752780777387,169.0,-47.0,93.0,-7.0,-6.0,-0.0,0.2,0.3,-0.1,0.07,0.49,0.54,-0.69,0.0,0.0,0.0
1752780777422,171.0,-43.0,92.0,-6.0,-8.0,1.0,0.9,-0.3,1.1,0.05,0.45,0.56,-0.69,0.0,0.0,0.0
1752780777457,175.0,-40.0,91.0,-6.0,-8.0,1.0,0.5,-0.2,0.7,0.03,0.43,0.57,-0.7,0.0,0.0,0.0
1752780777496,177.0,-37.0,91.0,-6.0,-8.0,0.0,0.1,-0.1,0.4,0.02,0.41,0.58,-0.7,0.0,0.0,0.0
1752780777540,178.0,-35.0,91.0,-5.0,-9.0,-0.0,0.3,-0.5,0.0,0.01,0.4,0.59,-0.7,0.0,0.0,0.0
1752780777590,179.0,-34.0,91.0,-6.0,-8.0,0.0,-0.4,-0.2,0.4,0.01,0.39,0.6,-0.7,0.0,0.0,0.0
1752780777738,180.0,-33.0,91.0,-4.0,-9.0,-1.0,1.0,-0.9,-0.4,0.0,0.39,0.6,-0.7,0.0,0.0,0.0
1752780777774,180.0,-34.0,91.0,-5.0,-8.0,0.0,0.2,0.5,0.3,0.0,0.4,0.59,-0.7,0.0,0.0,0.0
1752780777808,179.0,-36.0,89.0,-5.0,-9.0,0.0,1.3,-1.3,-0.5,0.01,0.41,0.57,-0.71,0.0,0.0,0.0
1752780778049,180.0,-68.0,51.0,-9.0,-2.0,-0.0,-0.2,0.5,-2.8,0.02,0.43,0.54,-0.72,0.0,0.0,0.0
1752780778090,184.0,-71.0,31.0,-9.0,1.0,3.0,-0.0,2.0,0.0,-0.02,0.59,0.11,-0.8,0.0,0.0,0.0
1752780778132,187.0,-73.0,8.0,-10.0,2.0,3.0,-0.1,1.7,-0.1,-0.04,0.6,0.01,-0.8,0.0,0.0,0.0
1752780778172,192.0,-75.0,-14.0,-11.0,4.0,2.0,-1.3,3.1,-0.1,-0.08,0.6,-0.1,-0.79,0.0,0.0,0.0
1752780778208,196.0,-75.0,-36.0,-10.0,3.0,2.0,-0.3,1.0,0.0,-0.11,0.6,-0.18,-0.77,0.0,0.0,0.0
1752780778248,204.0,-77.0,-59.0,-9.0,2.0,1.0,0.3,0.3,0.1,-0.16,0.61,-0.26,-0.73,0.0,0.0,0.0
1752780778290,215.0,-77.0,-104.0,-10.0,3.0,-1.0,-0.9,1.8,-0.6,-0.21,0.63,-0.36,-0.66,0.0,0.0,0.0
1752780778339,230.0,-74.0,-144.0,-9.0,2.0,-3.0,0.0,0.4,-0.2,-0.25,0.64,-0.43,-0.58,0.0,0.0,0.0
1752780778377,243.0,-71.0,-165.0,-9.0,1.0,-3.0,0.2,0.6,-0.4,-0.29,0.65,-0.47,-0.52,0.0,0.0,0.0
1752780778427,253.0,-70.0,-178.0,-10.0,1.0,-5.0,-0.4,1.3,-1.9,-0.34,0.65,-0.5,-0.46,0.0,0.0,0.0
1752780778461,263.0,-69.0,170.0,-9.0,-0.0,-4.0,0.8,0.4,-0.1,-0.38,0.65,-0.5,-0.43,0.0,0.0,0.0
1752780778509,278.0,-68.0,153.0,-9.0,-1.0,-4.0,0.2,0.8,-0.7,-0.42,0.64,-0.51,-0.39,0.0,0.0,0.0
1752780778543,288.0,-66.0,141.0,-8.0,-2.0,-4.0,0.5,0.4,-0.7,-0.46,0.63,-0.51,-0.35,0.0,0.0,0.0
1752780778683,314.0,-58.0,112.0,-8.0,-5.0,-2.0,0.7,0.4,0.4,-0.58,0.62,-0.47,-0.25,0.0,0.0,0.0
1752780778731,318.0,-55.0,109.0,-7.0,-6.0,-1.0,1.1,-0.0,0.3,-0.6,0.62,-0.45,-0.23,0.0,0.0,0.0
1752780778760,321.0,-52.0,106.0,-6.0,-7.0,-1.0,1.5,-1.1,0.8,-0.61,0.63,-0.43,-0.22,0.0,0.0,0.0
1752780778804,322.0,-51.0,105.0,-6.0,-7.0,-0.0,2.1,-1.2,1.2,-0.61,0.64,-0.41,-0.21,0.0,0.0,0.0
1752780778852,320.0,-52.0,106.0,-6.0,-6.0,-1.0,1.5,-0.4,0.3,-0.61,0.64,-0.41,-0.22,0.0,0.0,0.0
1752780778889,312.0,-55.0,109.0,-6.0,-7.0,-2.0,2.1,-2.0,-0.0,-0.59,0.65,-0.42,-0.25,0.0,0.0,0.0
1752780778930,298.0,-64.0,116.0,-8.0,-3.0,-1.0,1.2,0.7,1.2,-0.55,0.64,-0.44,-0.31,0.0,0.0,0.0
1752780778971,286.0,-70.0,127.0,-8.0,-1.0,-2.0,1.6,0.7,0.3,-0.5,0.62,-0.47,-0.38,0.0,0.0,0.0
1752780779010,269.0,-77.0,159.0,-8.0,1.0,-2.0,0.8,1.6,0.6,-0.44,0.6,-0.5,-0.45,0.0,0.0,0.0
1752780779047,252.0,-76.0,-152.0,-10.0,4.0,-2.0,0.1,2.3,-0.2,-0.37,0.57,-0.53,-0.5,0.0,0.0,0.0
1752780779089,238.0,-68.0,-133.0,-9.0,3.0,-4.0,0.3,0.2,-1.9,-0.31,0.56,-0.56,-0.53,0.0,0.0,0.0
1752780779137,227.0,-63.0,-121.0,-8.0,4.0,-1.0,0.7,-0.3,0.7,-0.26,0.54,-0.58,-0.56,0.0,0.0,0.0
1752780779180,215.0,-56.0,-112.0,-7.0,5.0,-3.0,0.9,0.0,-0.7,-0.2,0.51,-0.59,-0.6,0.0,0.0,0.0
1752780779226,208.0,-52.0,-107.0,-8.0,7.0,-2.0,-0.4,1.7,-0.8,-0.15,0.49,-0.59,-0.62,0.0,0.0,0.0
1752780779373,198.0,-46.0,-102.0,-7.0,9.0,-2.0,-0.4,1.0,-1.0,-0.1,0.46,-0.6,-0.65,0.0,0.0,0.0
1752780779410,189.0,-38.0,-100.0,-6.0,8.0,-1.0,-0.2,0.2,0.0,-0.05,0.42,-0.62,-0.66,0.0,0.0,0.0
1752780779451,188.0,-37.0,-99.0,-6.0,8.0,-2.0,-0.5,0.7,-1.0,-0.04,0.42,-0.62,-0.66,0.0,0.0,0.0
1752780779493,187.0,-37.0,-100.0,-7.0,9.0,-3.0,-1.0,1.5,-1.4,-0.04,0.41,-0.63,-0.66,0.0,0.0,0.0
1752780779543,191.0,-39.0,-101.0,-6.0,8.0,-1.0,-0.2,0.5,0.5,-0.06,0.42,-0.63,-0.65,0.0,0.0,0.0
1752780779573,193.0,-40.0,-101.0,-7.0,8.0,-3.0,-0.7,0.9,-1.3,-0.07,0.43,-0.63,-0.65,0.0,0.0,0.0
1752780779811,239.0,-76.0,-105.0,-9.0,2.0,-1.0,0.3,0.3,-0.5,-0.19,0.47,-0.59,-0.63,0.0,0.0,0.0
1752780779858,246.0,-82.0,-104.0,-9.0,1.0,-1.0,1.1,-0.5,-0.4,-0.38,0.55,-0.47,-0.58,0.0,0.0,0.0
1752780779894,256.0,-89.0,180.0,-9.0,-1.0,0.0,0.9,-0.3,0.1,-0.42,0.56,-0.44,-0.56,0.0,0.0,0.0
1752780779944,264.0,-84.0,174.0,-9.0,-1.0,-0.0,0.6,0.5,0.0,-0.46,0.57,-0.43,-0.53,0.0,0.0,0.0
1752780779977,270.0,-80.0,96.0,-8.0,-3.0,1.0,1.1,-0.3,1.4,-0.49,0.58,-0.41,-0.5,0.0,0.0,0.0
1752780780125,292.0,-64.0,107.0,-7.0,-6.0,-2.0,1.3,-1.4,-0.5,-0.52,0.6,-0.39,-0.45,0.0,0.0,0.0
1752780780153,291.0,-64.0,109.0,-8.0,-4.0,-3.0,0.3,0.1,-1.5,-0.54,0.65,-0.38,-0.37,0.0,0.0,0.0
1752780780195,290.0,-65.0,110.0,-8.0,-4.0,-2.0,0.5,-0.4,-0.3,-0.53,0.65,-0.39,-0.38,0.0,0.0,0.0
1752780780244,289.0,-65.0,112.0,-9.0,-4.0,-3.0,0.3,-0.0,-1.0,-0.53,0.65,-0.39,-0.38,0.0,0.0,0.0
1752780780278,288.0,-66.0,113.0,-9.0,-4.0,-2.0,0.4,-0.4,-0.6,-0.52,0.65,-0.4,-0.38,0.0,0.0,0.0
1752780780318,288.0,-67.0,115.0,-9.0,-4.0,-2.0,0.0,0.1,0.3,-0.52,0.64,-0.41,-0.38,0.0,0.0,0.0
1752780780352,285.0,-69.0,118.0,-9.0,-2.0,-1.0,-0.2,0.7,0.5,-0.51,0.64,-0.42,-0.39,0.0,0.0,0.0
1752780780395,283.0,-69.0,123.0,-9.0,-3.0,-2.0,0.1,0.1,-0.1,-0.5,0.64,-0.43,-0.4,0.0,0.0,0.0
1752780780445,281.0,-69.0,128.0,-9.0,-3.0,-2.0,1.5,-1.0,0.1,-0.49,0.65,-0.43,-0.4,0.0,0.0,0.0
1752780780480,277.0,-70.0,136.0,-7.0,-4.0,-3.0,2.1,-1.6,-0.4,-0.47,0.66,-0.44,-0.4,0.0,0.0,0.0
1752780780632,247.0,-71.0,-153.0,-10.0,3.0,-2.0,-0.7,1.8,-0.1,-0.33,0.59,-0.54,-0.5,0.0,0.0,0.0
1752780780776,222.0,-57.0,-122.0,-9.0,6.0,-4.0,-0.5,1.5,-0.8,-0.22,0.52,-0.61,-0.56,0.0,0.0,0.0
1752780780823,215.0,-53.0,-117.0,-8.0,6.0,-2.0,-0.4,0.4,0.5,-0.19,0.5,-0.62,-0.57,0.0,0.0,0.0
1752780780866,211.0,-50.0,-115.0,-7.0,6.0,-2.0,-0.1,0.2,0.4,-0.16,0.48,-0.64,-0.58,0.0,0.0,0.0
1752780780902,205.0,-45.0,-113.0,-7.0,7.0,-4.0,0.1,0.2,-0.9,-0.14,0.46,-0.65,-0.58,0.0,0.0,0.0
1752780780943,201.0,-43.0,-111.0,-7.0,7.0,-4.0,-0.1,-0.0,-1.0,-0.11,0.45,-0.65,-0.6,0.0,0.0,0.0
1752780780986,199.0,-41.0,-112.0,-7.0,8.0,-4.0,-0.2,0.7,-0.8,-0.1,0.45,-0.66,-0.59,0.0,0.0,0.0
1752780781032,199.0,-40.0,-113.0,-7.0,8.0,-3.0,-0.4,0.7,-0.1,-0.1,0.44,-0.67,-0.59,0.0,0.0,0.0
1752780781069,199.0,-40.0,-113.0,-6.0,8.0,-3.0,0.2,0.2,-0.4,-0.1,0.44,-0.68,-0.58,0.0,0.0,0.0
1752780781105,200.0,-41.0,-114.0,-6.0,7.0,-4.0,-0.1,0.2,-0.7,-0.1,0.44,-0.68,-0.58,0.0,0.0,0.0
1752780781145,203.0,-42.0,-114.0,-7.0,8.0,-4.0,-0.6,0.9,-1.0,-0.11,0.44,-0.68,-0.58,0.0,0.0,0.0
1752780781198,206.0,-44.0,-115.0,-8.0,8.0,-4.0,-1.2,1.6,-1.3,-0.13,0.45,-0.67,-0.57,0.0,0.0,0.0
1752780781236,214.0,-50.0,-116.0,-8.0,7.0,-4.0,-0.5,1.2,-1.5,-0.16,0.46,-0.66,-0.57,0.0,0.0,0.0
1752780781291,226.0,-57.0,-119.0,-8.0,6.0,-3.0,0.4,0.9,-0.7,-0.22,0.48,-0.63,-0.56,0.0,0.0,0.0
1752780781333,238.0,-66.0,-123.0,-8.0,3.0,-2.0,1.3,0.2,0.1,-0.3,0.51,-0.6,-0.54,0.0,0.0,0.0
1752780781473,268.0,-87.0,177.0,-9.0,-1.0,0.0,1.3,-0.8,0.6,-0.36,0.53,-0.56,-0.53,0.0,0.0,0.0
1752780781523,273.0,-84.0,174.0,-9.0,-2.0,-0.0,0.8,-0.4,-0.4,-0.51,0.54,-0.46,-0.48,0.0,0.0,0.0
1752780781561,277.0,-82.0,81.0,-9.0,-2.0,0.0,0.8,-0.7,0.5,-0.54,0.53,-0.45,-0.47,0.0,0.0,0.0
1752780781595,280.0,-80.0,75.0,-9.0,-2.0,1.0,0.5,-0.3,0.2,-0.55,0.53,-0.45,-0.47,0.0,0.0,0.0
1752780781636,280.0,-80.0,71.0,-9.0,-2.0,1.0,0.4,-0.2,0.5,-0.56,0.52,-0.45,-0.46,0.0,0.0,0.0
1752780781681,280.0,-80.0,71.0,-9.0,-2.0,1.0,0.4,-0.3,0.1,-0.56,0.52,-0.45,-0.47,0.0,0.0,0.0
1752780781728,279.0,-81.0,76.0,-10.0,-1.0,-0.0,-0.0,0.3,-0.5,-0.55,0.52,-0.45,-0.47,0.0,0.0,0.0
1752780781766,277.0,-82.0,80.0,-10.0,-1.0,-0.0,-0.0,-0.1,-0.5,-0.54,0.53,-0.46,-0.47,0.0,0.0,0.0
1752780781903,276.0,-84.0,174.0,-10.0,-1.0,-0.0,0.0,-0.0,-0.0,-0.53,0.53,-0.47,-0.47,0.0,0.0,0.0
1752780781945,275.0,-85.0,175.0,-10.0,-1.0,-1.0,0.0,0.0,-0.5,-0.52,0.53,-0.48,-0.47,0.0,0.0,0.0
1752780782089,275.0,-85.0,175.0,-10.0,-1.0,-0.0,-0.1,0.1,-0.1,-0.52,0.52,-0.49,-0.47,0.0,0.0,0.0
1752780782128,275.0,-85.0,175.0,-10.0,-0.0,1.0,-0.5,0.7,1.4,-0.51,0.53,-0.49,-0.47,0.0,0.0,0.0
1752780782176,277.0,-82.0,137.0,-10.0,-1.0,0.0,0.4,0.4,1.4,-0.5,0.54,-0.51,-0.44,0.0,0.0,0.0
1752780782211,279.0,-77.0,147.0,-9.0,-0.0,-1.0,-0.1,1.1,0.6,-0.48,0.57,-0.52,-0.41,0.0,0.0,0.0
1752780782254,280.0,-70.0,152.0,-8.0,-1.0,-3.0,1.2,0.9,0.9,-0.45,0.62,-0.52,-0.38,0.0,0.0,0.0
1752780782289,289.0,-55.0,153.0,-5.0,-3.0,-4.0,2.6,-0.0,1.6,-0.42,0.67,-0.53,-0.31,0.0,0.0,0.0
1752780782331,295.0,-46.0,156.0,-4.0,-3.0,-9.0,2.2,-0.4,-2.4,-0.36,0.73,-0.53,-0.23,0.0,0.0,0.0
1752780782376,249.0,-33.0,158.0,-4.0,-3.0,-9.0,0.9,0.5,-1.0,-0.31,0.77,-0.54,-0.16,0.0,0.0,0.0
1752780782427,247.0,-28.0,161.0,-3.0,-3.0,-8.0,1.0,0.2,-0.1,-0.26,0.8,-0.53,-0.12,0.0,0.0,0.0
1752780782463,246.0,-23.0,164.0,-3.0,-2.0,-10.0,0.6,0.8,-0.3,-0.22,0.81,-0.53,-0.1,0.0,0.0,0.0
1752780782496,245.0,-20.0,166.0,-3.0,-1.0,-9.0,0.5,0.4,-1.1,-0.19,0.82,-0.53,-0.09,0.0,0.0,0.0
1752780782749,243.0,-16.0,172.0,-3.0,-1.0,-9.0,0.2,0.4,-0.0,-0.14,0.84,-0.52,-0.08,0.0,0.0,0.0
1752780782783,243.0,-18.0,172.0,-2.0,-1.0,-10.0,0.6,-0.0,-0.7,-0.14,0.84,-0.52,-0.1,0.0,0.0,0.0
1752780782842,244.0,-19.0,172.0,-3.0,-1.0,-9.0,0.2,0.4,-0.4,-0.15,0.83,-0.52,-0.1,0.0,0.0,0.0
1752780782864,244.0,-20.0,171.0,-3.0,-2.0,-10.0,0.4,0.2,-1.2,-0.16,0.83,-0.52,-0.11,0.0,0.0,0.0
1752780782895,246.0,-23.0,170.0,-3.0,-2.0,-11.0,1.0,0.5,-1.3,-0.18,0.82,-0.53,-0.12,0.0,0.0,0.0
1752780782939,248.0,-29.0,167.0,-4.0,-1.0,-9.0,0.7,0.7,-1.3,-0.21,0.8,-0.54,-0.14,0.0,0.0,0.0
1752780782980,249.0,-35.0,166.0,-4.0,-2.0,-8.0,1.8,-0.1,-0.5,-0.26,0.78,-0.54,-0.19,0.0,0.0,0.0
1752780783031,284.0,-44.0,164.0,-5.0,-2.0,-6.0,1.0,0.3,0.5,-0.3,0.75,-0.54,-0.23,0.0,0.0,0.0
1752780783080,279.0,-52.0,164.0,-7.0,-2.0,-6.0,1.2,-0.0,-0.7,-0.34,0.71,-0.54,-0.29,0.0,0.0,0.0
1752780783105,277.0,-60.0,163.0,-7.0,-1.0,-5.0,2.3,-0.1,-1.0,-0.38,0.67,-0.54,-0.34,0.0,0.0,0.0
1752780783255,265.0,-87.0,-177.0,-10.0,1.0,1.0,0.2,0.3,0.9,-0.47,0.51,-0.51,-0.51,0.0,0.0,0.0
1752780783394,263.0,-84.0,-5.0,-10.0,2.0,2.0,-0.6,0.8,0.6,-0.48,0.48,-0.5,-0.54,0.0,0.0,0.0
1752780783439,261.0,-79.0,-42.0,-10.0,1.0,2.0,-0.2,0.0,0.6,-0.49,0.44,-0.49,-0.57,0.0,0.0,0.0
1752780783482,262.0,-79.0,-43.0,-10.0,2.0,2.0,-0.2,0.3,0.4,-0.49,0.44,-0.49,-0.57,0.0,0.0,0.0
1752780783533,262.0,-81.0,-45.0,-10.0,1.0,1.0,-0.1,0.1,-0.1,-0.49,0.44,-0.49,-0.56,0.0,0.0,0.0
1752780783563,263.0,-82.0,-46.0,-10.0,1.0,1.0,0.1,-0.2,0.1,-0.49,0.45,-0.5,-0.55,0.0,0.0,0.0
1752780783597,264.0,-82.0,-46.0,-10.0,1.0,1.0,-0.1,0.1,0.2,-0.49,0.46,-0.5,-0.55,0.0,0.0,0.0
1752780783642,265.0,-84.0,-4.0,-10.0,1.0,1.0,-0.3,0.6,0.6,-0.49,0.47,-0.5,-0.54,0.0,0.0,0.0
1752780783701,266.0,-87.0,-3.0,-10.0,1.0,1.0,-0.3,1.0,1.7,-0.49,0.49,-0.5,-0.53,0.0,0.0,0.0
1752780783832,269.0,-86.0,179.0,-7.0,-2.0,-3.0,1.5,0.2,1.3,-0.48,0.53,-0.51,-0.49,0.0,0.0,0.0
1752780783885,288.0,-53.0,156.0,-6.0,-2.0,-4.0,2.2,0.0,0.9,-0.39,0.7,-0.54,-0.28,0.0,0.0,0.0
1752780783909,296.0,-43.0,158.0,-4.0,-3.0,-7.0,2.3,-0.7,-0.1,-0.34,0.74,-0.54,-0.21,0.0,0.0,0.0
1752780783952,250.0,-33.0,160.0,-3.0,-3.0,-9.0,1.7,-0.5,-1.0,-0.29,0.77,-0.54,-0.15,0.0,0.0,0.0
1752780784099,249.0,-26.0,164.0,-3.0,-1.0,-10.0,0.3,0.9,-1.2,-0.24,0.79,-0.55,-0.12,0.0,0.0,0.0
1752780784352,248.0,-17.0,174.0,-3.0,-1.0,-10.0,0.2,0.1,-0.4,-0.12,0.82,-0.55,-0.09,0.0,0.0,0.0
1752780784493,247.0,-19.0,174.0,-3.0,-1.0,-10.0,0.6,-0.1,-1.1,-0.12,0.82,-0.55,-0.1,0.0,0.0,0.0
1752780784638,249.0,-33.0,170.0,-5.0,-1.0,-8.0,0.9,0.4,-0.0,-0.22,0.79,-0.54,-0.19,0.0,0.0,0.0
1752780784684,251.0,-40.0,168.0,-5.0,-1.0,-8.0,1.4,0.2,-0.7,-0.27,0.76,-0.54,-0.23,0.0,0.0,0.0
1752780784719,274.0,-50.0,167.0,-5.0,-1.0,-6.0,2.2,-0.2,0.7,-0.32,0.72,-0.54,-0.3,0.0,0.0,0.0
1752780784751,269.0,-61.0,168.0,-7.0,-1.0,-3.0,1.6,0.2,0.8,-0.36,0.68,-0.53,-0.36,0.0,0.0,0.0
1752780784800,265.0,-72.0,173.0,-8.0,-1.0,-2.0,1.2,-0.4,0.3,-0.39,0.63,-0.53,-0.42,0.0,0.0,0.0
1752780784838,262.0,-79.0,-177.0,-9.0,1.0,-1.0,0.9,0.2,0.9,-0.41,0.58,-0.51,-0.48,0.0,0.0,0.0
1752780784884,259.0,-85.0,-176.0,-9.0,2.0,2.0,0.3,0.7,1.7,-0.44,0.52,-0.5,-0.54,0.0,0.0,0.0
1752780784922,257.0,-83.0,-65.0,-10.0,2.0,2.0,0.1,1.1,1.7,-0.45,0.49,-0.49,-0.57,0.0,0.0,0.0
1752780784960,257.0,-80.0,-51.0,-10.0,3.0,3.0,-0.3,1.3,1.5,-0.46,0.46,-0.48,-0.58,0.0,0.0,0.0
1752780785001,259.0,-79.0,-51.0,-10.0,2.0,2.0,0.2,0.3,2.1,-0.47,0.45,-0.49,-0.58,0.0,0.0,0.0
1752780785043,261.0,-78.0,-55.0,-10.0,2.0,1.0,0.0,0.4,0.1,-0.48,0.43,-0.51,-0.57,0.0,0.0,0.0
1752780785084,262.0,-79.0,-58.0,-10.0,2.0,1.0,-0.3,0.0,0.1,-0.49,0.43,-0.52,-0.56,0.0,0.0,0.0
1752780785122,265.0,-80.0,-63.0,-9.0,1.0,1.0,0.7,-0.0,-0.1,-0.49,0.43,-0.53,-0.54,0.0,0.0,0.0
1752780785167,266.0,-81.0,-64.0,-8.0,0.0,-2.0,-1.0,0.9,0.2,-0.5,0.43,-0.53,-0.54,0.0,0.0,0.0
1752780785203,268.0,-83.0,-75.0,-12.0,0.0,-0.0,-1.2,1.1,0.6,-0.5,0.44,-0.54,-0.52,0.0,0.0,0.0
1752780785553,341.0,-59.0,84.0,-7.0,-7.0,-0.0,1.1,-2.4,-0.8,-0.71,0.46,-0.52,-0.12,0.0,0.0,0.0
1752780785597,341.0,-62.0,71.0,-15.0,-2.0,5.0,-6.6,1.9,3.3,-0.74,0.4,-0.52,-0.13,0.0,0.0,0.0
1752780785641,347.0,-64.0,64.0,-10.0,-6.0,-0.0,-0.8,-2.0,-2.2,-0.77,0.32,-0.55,-0.09,0.0,0.0,0.0
1752780785674,354.0,-66.0,54.0,-11.0,-7.0,-2.0,-2.4,-2.8,-4.0,-0.79,0.24,-0.57,-0.04,0.0,0.0,0.0
1752780785721,358.0,-67.0,40.0,-10.0,-5.0,2.0,-1.3,-2.6,-1.1,-0.81,0.17,-0.57,-0.01,0.0,0.0,0.0
1752780785756,1.0,-63.0,23.0,-8.0,-3.0,3.0,0.4,-1.8,-1.1,-0.84,0.11,-0.54,0.0,0.0,0.0,0.0
1752780785809,0.0,-60.0,9.0,-6.0,1.0,5.0,2.3,1.5,0.4,-0.86,0.06,-0.51,0.0,0.0,0.0,0.0
1752780785843,1.0,-57.0,3.0,-6.0,-1.0,6.0,2.5,-0.6,0.7,-0.88,0.01,-0.48,0.01,0.0,0.0,0.0
1752780785985,352.0,-47.0,-31.0,8.0,5.0,14.0,17.4,2.9,11.7,-0.89,-0.03,-0.45,0.02,0.0,0.0,0.0
1752780786235,294.0,4.0,-180.0,6.0,-4.0,16.0,5.3,-7.8,15.2,0.03,0.54,-0.84,0.02,0.0,0.0,0.0
1752780786269,286.0,5.0,174.0,6.0,-13.0,-21.0,4.1,-10.9,-6.5,0.0,0.6,-0.79,0.07,0.0,0.0,0.0
1752780786302,283.0,3.0,165.0,3.0,-7.0,-8.0,1.8,-3.5,6.0,-0.06,0.62,-0.78,0.12,0.0,0.0,0.0
1752780786446,288.0,-4.0,150.0,-1.0,-8.0,-4.0,0.1,-2.8,4.0,-0.17,0.57,-0.78,0.19,0.0,0.0,0.0
1752780786492,291.0,-6.0,151.0,-0.0,-5.0,-8.0,1.0,0.0,0.3,-0.18,0.55,-0.8,0.17,0.0,0.0,0.0
1752780786627,302.0,-11.0,160.0,-2.0,-4.0,-9.0,0.8,-0.4,0.1,-0.18,0.53,-0.82,0.16,0.0,0.0,0.0
1752780786675,307.0,-14.0,162.0,-3.0,-4.0,-8.0,0.1,-0.5,0.8,-0.18,0.43,-0.88,0.08,0.0,0.0,0.0
1752780786714,316.0,-19.0,161.0,-2.0,-1.0,-9.0,1.0,1.7,-0.2,-0.21,0.38,-0.9,0.08,0.0,0.0,0.0
1752780786746,323.0,-24.0,160.0,-3.0,-3.0,-8.0,0.8,-0.0,0.7,-0.24,0.32,-0.91,0.09,0.0,0.0,0.0
1752780786793,328.0,-28.0,159.0,-12.0,1.0,-10.0,-6.4,3.6,-2.2,-0.28,0.26,-0.92,0.09,0.0,0.0,0.0
1752780786827,334.0,-33.0,155.0,-5.0,-3.0,-6.0,2.8,-1.0,-0.5,-0.33,0.21,-0.91,0.11,0.0,0.0,0.0
1752780786863,60.0,-35.0,144.0,-7.0,-5.0,-6.0,-1.9,0.5,2.6,-0.35,0.17,-0.9,0.21,0.0,0.0,0.0
1752780786908,58.0,-41.0,140.0,-8.0,-3.0,-2.0,-1.3,2.1,4.2,-0.4,0.13,-0.88,0.23,0.0,0.0,0.0
1752780786946,65.0,-39.0,140.0,-6.0,-5.0,-2.0,0.0,0.2,3.5,-0.38,0.09,-0.89,0.24,0.0,0.0,0.0
1752780786988,68.0,-38.0,140.0,-10.0,-8.0,-6.0,-3.5,-3.2,-0.3,-0.37,0.08,-0.89,0.25,0.0,0.0,0.0
1752780787029,69.0,-37.0,142.0,-5.0,-4.0,-12.0,0.6,1.1,-1.8,-0.36,0.08,-0.9,0.24,0.0,0.0,0.0
1752780787069,49.0,-37.0,150.0,-7.0,-5.0,-8.0,-3.8,0.0,8.4,-0.36,0.14,-0.91,0.16,0.0,0.0,0.0
1752780787108,39.0,-41.0,155.0,-11.0,2.0,-8.0,-4.8,4.6,-0.7,-0.39,0.11,-0.9,0.15,0.0,0.0,0.0
1752780787146,356.0,-32.0,168.0,-3.0,6.0,-23.0,1.6,7.8,-14.8,-0.31,0.05,-0.95,0.09,0.0,0.0,0.0
1752780787190,0.0,-28.0,169.0,-2.0,3.0,-20.0,3.1,4.9,-11.9,-0.24,-0.0,-0.97,0.09,0.0,0.0,0.0
1752780787232,358.0,-36.0,156.0,-3.0,-6.0,-14.0,3.7,-3.6,-6.0,-0.3,0.01,-0.94,0.15,0.0,0.0,0.0
1752780787475,42.0,-41.0,-91.0,25.0,21.0,10.0,36.8,25.6,9.3,-0.66,-0.67,-0.24,0.25,0.0,0.0,0.0
1752780787516,24.0,-26.0,-85.0,27.0,40.0,13.0,36.5,29.5,18.1,-0.72,-0.66,-0.17,0.15,0.0,0.0,0.0
1752780787990,25.0,-25.0,-55.0,4.0,-1.0,-5.0,11.9,-5.3,-10.6,-0.85,-0.47,-0.15,0.19,0.0,0.0,0.0
1752780788023,17.0,-34.0,-59.0,10.0,17.0,-1.0,14.5,18.6,4.6,-0.83,-0.47,-0.26,0.13,0.0,0.0,0.0
1752780788057,28.0,-28.0,-39.0,20.0,14.0,18.0,24.9,9.7,11.2,-0.88,-0.41,-0.17,0.17,0.0,0.0,0.0
1752780788107,79.0,-61.0,7.0,39.0,-39.0,-7.0,47.7,-35.2,-10.4,-0.77,-0.31,-0.33,0.46,0.0,0.0,0.0
1752780788140,113.0,-45.0,111.0,23.0,3.0,-39.0,29.9,6.9,-33.2,-0.34,-0.18,-0.77,0.51,0.0,0.0,0.0
1752780788187,63.0,-56.0,162.0,-6.0,0.0,-22.0,11.2,-4.0,-19.9,-0.37,-0.31,-0.83,0.26,0.0,0.0,0.0
1752780788230,89.0,-47.0,134.0,12.0,-15.0,-23.0,16.1,-9.9,-15.9,-0.36,-0.16,-0.84,0.36,0.0,0.0,0.0
1752780788265,105.0,-38.0,118.0,6.0,-8.0,-11.0,12.2,1.8,-6.9,-0.34,-0.05,-0.83,0.45,0.0,0.0,0.0
1752780788306,97.0,-44.0,107.0,10.0,-6.0,-8.0,16.9,-2.2,-6.3,-0.42,-0.05,-0.78,0.47,0.0,0.0,0.0
1752780788356,85.0,-56.0,77.0,8.0,-2.0,1.0,16.5,2.9,-1.6,-0.52,-0.1,-0.68,0.51,0.0,0.0,0.0
1752780788396,73.0,-55.0,38.0,12.0,-3.0,22.0,18.3,-1.0,15.2,-0.68,-0.12,-0.51,0.5,0.0,0.0,0.0
1752780788437,45.0,-26.0,10.0,8.0,10.0,24.0,18.8,11.1,7.9,-0.87,-0.03,-0.27,0.41,0.0,0.0,0.0
1752780788490,30.0,-20.0,11.0,21.0,6.0,39.0,21.4,7.3,30.2,-0.95,0.04,-0.2,0.26,0.0,0.0,0.0
1752780788522,21.0,-26.0,15.0,26.0,18.0,30.0,36.4,6.6,17.2,-0.95,0.08,-0.24,0.17,0.0,0.0,0.0
1752780788658,31.0,-64.0,36.0,4.0,-1.0,-35.0,12.4,1.6,-12.6,-0.8,0.01,-0.56,0.22,0.0,0.0,0.0
1752780788708,38.0,-60.0,46.0,10.0,-1.0,4.0,18.1,2.4,-0.6,-0.74,0.03,-0.61,0.27,0.0,0.0,0.0
1752780788752,33.0,-47.0,28.0,16.0,-1.0,22.0,22.6,1.8,15.1,-0.86,0.05,-0.45,0.26,0.0,0.0,0.0
1752780788785,30.0,-32.0,25.0,14.0,-18.0,39.0,22.5,-7.3,31.5,-0.9,0.1,-0.34,0.25,0.0,0.0,0.0
1752780788920,23.0,-46.0,172.0,21.0,26.0,-39.0,28.3,27.6,-32.6,-0.42,-0.04,-0.9,0.08,0.0,0.0,0.0
1752780788959,37.0,-57.0,154.0,10.0,2.0,-38.0,18.1,5.2,-34.1,-0.46,-0.04,-0.87,0.14,0.0,0.0,0.0
1752780789000,43.0,-67.0,100.0,13.0,-3.0,-1.0,21.9,0.5,-1.6,-0.59,-0.0,-0.77,0.23,0.0,0.0,0.0
1752780789041,44.0,-61.0,57.0,16.0,-1.0,9.0,24.3,2.3,4.5,-0.74,0.03,-0.6,0.3,0.0,0.0,0.0
1752780789187,32.0,-56.0,35.0,35.0,16.0,13.0,46.8,16.5,6.2,-0.84,0.05,-0.44,0.31,0.0,0.0,0.0
1752780789230,42.0,-58.0,149.0,39.0,10.0,-39.0,44.9,26.2,-31.8,-0.49,-0.05,-0.85,0.19,0.0,0.0,0.0
1752780789268,57.0,-44.0,159.0,0.0,-18.0,-39.0,18.8,-20.5,-33.1,-0.35,-0.12,-0.91,0.19,0.0,0.0,0.0
1752780789311,68.0,-50.0,135.0,14.0,-2.0,-16.0,22.3,2.7,-13.0,-0.39,-0.06,-0.88,0.28,0.0,0.0,0.0
1752780789351,58.0,-59.0,89.0,20.0,-4.0,3.0,28.7,1.4,1.7,-0.58,0.01,-0.74,0.33,0.0,0.0,0.0
1752780789402,49.0,-53.0,50.0,18.0,-2.0,18.0,24.6,2.2,12.3,-0.76,0.05,-0.55,0.35,0.0,0.0,0.0
1752780789433,38.0,-30.0,27.0,18.0,-5.0,39.0,22.0,0.2,30.7,-0.89,0.11,-0.32,0.31,0.0,0.0,0.0
1752780789470,28.0,-15.0,21.0,18.0,0.0,29.0,19.9,1.9,20.4,-0.95,0.14,-0.17,0.24,0.0,0.0,0.0
1752780789517,23.0,-23.0,20.0,16.0,7.0,25.0,23.1,11.5,16.4,-0.95,0.12,-0.23,0.2,0.0,0.0,0.0
1752780789552,24.0,-58.0,32.0,34.0,5.0,10.0,42.8,7.8,6.9,-0.88,0.07,-0.44,0.17,0.0,0.0,0.0
1752780789596,38.0,-67.0,112.0,39.0,3.0,-39.0,45.2,6.2,-32.1,-0.62,0.03,-0.76,0.21,0.0,0.0,0.0
1752780789639,21.0,-22.0,164.0,4.0,11.0,-28.0,13.2,-14.0,-14.3,-0.14,-0.12,-0.97,0.15,0.0,0.0,0.0
1752780789781,47.0,-57.0,64.0,16.0,4.0,16.0,23.4,7.0,11.4,-0.72,0.07,-0.61,0.31,0.0,0.0,0.0
1752780789821,34.0,-38.0,28.0,29.0,2.0,16.0,34.6,6.4,13.6,-0.88,0.1,-0.38,0.27,0.0,0.0,0.0
1752780789864,26.0,-10.0,24.0,33.0,-11.0,39.0,27.1,-11.9,30.5,-0.95,0.18,-0.14,0.22,0.0,0.0,0.0
1752780790007,20.0,-1.0,25.0,39.0,33.0,-39.0,43.8,35.1,-30.8,-0.96,0.21,0.03,0.19,0.0,0.0,0.0
1752780790052,7.0,-36.0,157.0,3.0,-21.0,-12.0,18.3,-23.3,-14.2,-0.3,-0.06,-0.93,0.19,0.0,0.0,0.0
1752780790298,103.0,-33.0,123.0,19.0,9.0,12.0,23.2,13.1,4.1,-0.33,0.02,-0.85,0.41,0.0,0.0,0.0
1752780790339,3.0,-37.0,28.0,13.0,9.0,9.0,14.6,9.9,7.1,-0.92,0.19,-0.33,0.03,0.0,0.0,0.0
1752780790374,356.0,-67.0,44.0,12.0,22.0,-12.0,48.0,41.4,-36.8,-0.8,0.19,-0.57,-0.03,0.0,0.0,0.0
1752780790414,348.0,-48.0,177.0,9.0,35.0,-39.0,8.8,28.9,-31.3,-0.41,0.14,-0.9,-0.04,0.0,0.0,0.0
1752780790457,38.0,-51.0,151.0,0.0,-7.0,-9.0,7.8,-3.2,-3.9,-0.43,0.03,-0.89,0.1,0.0,0.0,0.0
1752780790507,79.0,-41.0,120.0,10.0,-6.0,-20.0,17.4,2.8,-16.8,-0.44,0.07,-0.84,0.31,0.0,0.0,0.0
1752780790555,92.0,-41.0,96.0,14.0,-9.0,0.0,19.9,-1.9,-0.9,-0.47,0.04,-0.73,0.49,0.0,0.0,0.0
1752780790591,80.0,-36.0,69.0,18.0,-9.0,9.0,24.0,-1.3,6.2,-0.62,0.12,-0.58,0.52,0.0,0.0,0.0
1752780790624,59.0,-25.0,48.0,19.0,-7.0,20.0,21.8,-1.6,15.1,-0.78,0.22,-0.39,0.44,0.0,0.0,0.0
1752780790675,29.0,-9.0,34.0,11.0,-1.0,26.0,12.7,4.0,18.1,-0.9,0.26,-0.19,0.29,0.0,0.0,0.0
1752780790722,10.0,-12.0,26.0,6.0,6.0,15.0,8.6,9.1,5.9,-0.96,0.23,-0.12,0.12,0.0,0.0,0.0
1752780790854,1.0,-26.0,20.0,36.0,40.0,22.0,41.6,31.7,21.2,-0.97,0.16,-0.2,0.01,0.0,0.0,0.0
1752780790896,250.0,-7.0,-73.0,5.0,39.0,-2.0,5.2,29.5,-4.4,-0.46,-0.28,-0.53,-0.66,0.0,0.0,0.0
1752780790941,248.0,-8.0,-78.0,15.0,4.0,-15.0,17.4,-6.7,-17.5,-0.43,-0.28,-0.57,-0.64,0.0,0.0,0.0
1752780790971,258.0,-16.0,-77.0,8.0,13.0,-5.0,9.8,4.1,-2.7,-0.49,-0.24,-0.58,-0.6,0.0,0.0,0.0
1752780791028,280.0,-16.0,-70.0,4.0,6.0,6.0,7.3,-2.6,2.9,-0.6,-0.31,-0.5,-0.54,0.0,0.0,0.0
1752780791063,290.0,-19.0,-63.0,7.0,11.0,6.0,9.8,5.2,2.0,-0.68,-0.3,-0.46,-0.49,0.0,0.0,0.0
1752780791307,350.0,-68.0,-49.0,39.0,-39.0,19.0,35.0,-34.0,11.0,-0.79,-0.15,-0.58,-0.14,0.0,0.0,0.0
1752780791346,149.0,32.0,28.0,24.0,-13.0,-2.0,19.3,-8.8,-9.4,-0.25,0.33,-0.13,0.9,0.0,0.0,0.0
1752780791384,133.0,21.0,36.0,24.0,0.0,-4.0,16.9,8.9,-1.3,-0.37,0.29,-0.19,0.86,0.0,0.0,0.0
1752780791426,106.0,20.0,38.0,15.0,-4.0,19.0,12.1,-0.8,11.9,-0.56,0.33,-0.14,0.75,0.0,0.0,0.0
1752780791471,88.0,14.0,38.0,23.0,-9.0,13.0,23.7,-3.3,3.7,-0.68,0.31,-0.13,0.65,0.0,0.0,0.0
1752780791510,64.0,-14.0,44.0,23.0,-2.0,9.0,26.8,4.7,2.3,-0.76,0.25,-0.26,0.53,0.0,0.0,0.0
1752780791552,44.0,-41.0,50.0,36.0,5.0,-13.0,45.2,8.5,-14.9,-0.8,0.16,-0.48,0.32,0.0,0.0,0.0
1752780791586,357.0,-85.0,177.0,39.0,16.0,-26.0,48.2,22.4,-18.1,-0.68,0.06,-0.73,-0.02,0.0,0.0,0.0
1752780791628,294.0,-40.0,-67.0,36.0,40.0,32.0,35.3,31.5,30.5,-0.68,-0.15,-0.57,-0.44,0.0,0.0,0.0
1752780791674,260.0,21.0,-51.0,22.0,40.0,7.0,23.4,33.0,-7.6,-0.57,-0.42,-0.19,-0.68,0.0,0.0,0.0
1752780791708,261.0,1.0,-56.0,27.0,10.0,-1.0,27.3,2.1,-5.9,-0.54,-0.31,-0.32,-0.71,0.0,0.0,0.0
1752780791757,282.0,-7.0,-58.0,13.0,19.0,9.0,15.2,11.0,3.6,-0.68,-0.34,-0.36,-0.55,0.0,0.0,0.0
1752780791785,309.0,-19.0,-50.0,20.0,17.0,10.0,28.1,11.6,3.6,-0.81,-0.29,-0.34,-0.39,0.0,0.0,0.0
1752780791824,344.0,-45.0,-32.0,29.0,10.0,12.0,37.4,6.4,7.0,-0.89,-0.15,-0.42,-0.12,0.0,0.0,0.0
1752780791863,30.0,-60.0,23.0,29.0,5.0,11.0,37.4,12.4,6.8,-0.83,-0.02,-0.52,0.22,0.0,0.0,0.0
1752780791907,108.0,-24.0,91.0,39.0,9.0,1.0,41.3,18.7,0.8,-0.53,0.14,-0.67,0.51,0.0,0.0,0.0
1752780791962,185.0,19.0,75.0,39.0,-24.0,-16.0,33.2,-14.8,-5.1,-0.07,0.15,-0.64,0.75,0.0,0.0,0.0
1752780792000,187.0,47.0,56.0,19.0,-6.0,12.0,11.8,-0.7,9.1,0.05,0.42,-0.37,0.83,0.0,0.0,0.0
1752780792040,159.0,43.0,63.0,24.0,-1.0,2.0,20.6,6.2,-5.1,-0.15,0.48,-0.32,0.8,0.0,0.0,0.0
1752780792083,138.0,27.0,64.0,32.0,-4.0,-3.0,26.8,4.0,-1.3,-0.3,0.42,-0.36,0.78,0.0,0.0,0.0
1752780792116,104.0,17.0,68.0,24.0,-3.0,14.0,16.9,8.4,10.9,-0.51,0.47,-0.31,0.65,0.0,0.0,0.0
1752780792264,267.0,-33.0,-99.0,39.0,40.0,-8.0,38.0,29.1,-15.9,-0.55,-0.07,-0.75,-0.35,0.0,0.0,0.0
1752780792618,107.0,-69.0,63.0,36.0,9.0,12.0,31.7,15.8,6.7,-0.53,-0.47,-0.45,0.54,0.0,0.0,0.0
1752780792651,128.0,12.0,47.0,38.0,9.0,12.0,36.4,16.5,4.9,-0.4,0.28,-0.3,0.82,0.0,0.0,0.0
1752780792692,90.0,12.0,41.0,37.0,8.0,22.0,28.5,12.9,16.3,-0.66,0.32,-0.16,0.66,0.0,0.0,0.0
1752780792741,38.0,18.0,30.0,11.0,8.0,23.0,0.8,12.4,11.8,-0.9,0.29,0.07,0.31,0.0,0.0,0.0
1752780792768,358.0,-10.0,15.0,22.0,7.0,16.0,38.5,6.3,9.0,-0.99,0.13,-0.09,-0.02,0.0,0.0,0.0
1752780792821,2.0,-79.0,155.0,39.0,21.0,22.0,45.3,16.9,22.2,-0.77,0.01,-0.64,0.0,0.0,0.0,0.0
1752780792859,351.0,9.0,-140.0,39.0,29.0,17.0,36.7,21.3,21.0,0.01,0.13,-0.97,-0.19,0.0,0.0,0.0
1752780792900,191.0,17.0,-96.0,39.0,19.0,24.0,37.1,9.5,23.6,-0.06,-0.29,-0.68,-0.67,0.0,0.0,0.0
1752780792946,282.0,2.0,-84.0,22.0,5.0,12.0,18.3,-5.0,10.5,-0.58,-0.53,-0.41,-0.47,0.0,0.0,0.0
1752780792983,318.0,0.0,-96.0,12.0,10.0,5.0,9.1,0.9,6.1,-0.63,-0.69,-0.26,-0.24,0.0,0.0,0.0
1752780793222,120.0,-1.0,-26.0,37.0,10.0,8.0,36.9,5.6,-0.8,-0.38,-0.48,-0.39,0.69,0.0,0.0,0.0
1752780793270,78.0,4.0,-21.0,19.0,9.0,6.0,17.6,5.9,-3.4,-0.71,-0.13,0.15,0.67,0.0,0.0,0.0
1752780793303,58.0,11.0,-18.0,3.0,3.0,9.0,0.3,0.4,-0.0,-0.86,-0.09,0.16,0.48,0.0,0.0,0.0
1752780793347,40.0,18.0,-16.0,-3.0,3.0,9.0,-5.0,1.0,-0.7,-0.92,-0.07,0.19,0.33,0.0,0.0,0.0
1752780793377,24.0,3.0,-12.0,3.0,1.0,6.0,8.3,-0.9,-3.6,-0.97,-0.1,0.05,0.21,0.0,0.0,0.0
1752780793416,16.0,-43.0,-12.0,32.0,6.0,9.0,47.8,8.0,7.9,-0.92,-0.13,-0.35,0.13,0.0,0.0,0.0
1752780793464,332.0,-50.0,-157.0,39.0,10.0,7.0,44.6,6.1,14.5,-0.57,-0.08,-0.82,-0.06,0.0,0.0,0.0
1752780793503,2.0,-10.0,-141.0,36.0,10.0,-8.0,35.5,1.0,-3.5,-0.09,-0.01,-0.94,-0.33,0.0,0.0,0.0
1752780793545,173.0,15.0,-100.0,25.0,14.0,-1.0,18.4,4.9,-0.9,0.04,-0.15,-0.75,-0.64,0.0,0.0,0.0
1752780793590,191.0,30.0,-91.0,10.0,11.0,0.0,3.7,0.8,0.7,-0.07,-0.41,-0.58,-0.7,0.0,0.0,0.0
1752780793621,228.0,20.0,-102.0,3.0,4.0,-1.0,0.6,-5.5,1.3,-0.22,-0.53,-0.55,-0.61,0.0,0.0,0.0
1752780793673,258.0,-1.0,-103.0,3.0,2.0,-2.0,4.2,-7.1,0.2,-0.36,-0.5,-0.6,-0.51,0.0,0.0,0.0
1752780794025,305.0,-41.0,-151.0,7.0,4.0,-6.0,13.0,0.5,0.7,-0.37,-0.02,-0.91,-0.18,0.0,0.0,0.0
1752780794075,298.0,-39.0,-148.0,7.0,4.0,-5.0,13.5,0.4,1.4,-0.36,-0.03,-0.91,-0.21,0.0,0.0,0.0
1752780794122,296.0,-41.0,-148.0,9.0,5.0,-5.0,15.7,0.7,0.9,-0.36,0.0,-0.91,-0.22,0.0,0.0,0.0
1752780794156,360.0,-37.0,-155.0,10.0,0.0,-6.0,17.3,-2.3,0.9,-0.32,0.0,-0.93,-0.18,0.0,0.0,0.0
1752780794208,331.0,-55.0,-160.0,12.0,-5.0,-7.0,17.3,-7.0,-1.8,-0.47,0.01,-0.88,-0.12,0.0,0.0,0.0
1752780794442,347.0,-45.0,14.0,-6.0,4.0,-6.0,1.4,6.2,-14.4,-0.63,0.01,-0.77,-0.1,0.0,0.0,0.0
1752780794475,350.0,-42.0,15.0,-6.0,2.0,-7.0,0.5,3.5,-14.3,-0.92,0.14,-0.35,-0.08,0.0,0.0,0.0
1752780794516,353.0,-33.0,12.0,-7.0,3.0,-5.0,-2.1,4.5,-12.9,-0.95,0.11,-0.3,-0.06,0.0,0.0,0.0
1752780794559,354.0,-28.0,11.0,-7.0,3.0,-3.0,-2.7,4.3,-11.4,-0.96,0.1,-0.24,-0.05,0.0,0.0,0.0
1752780794592,358.0,-24.0,10.0,-7.0,-1.0,-6.0,-3.1,0.4,-15.8,-0.97,0.09,-0.21,-0.02,0.0,0.0,0.0
1752780794633,2.0,-18.0,9.0,-7.0,-2.0,-6.0,-9.1,1.8,-13.1,-0.98,0.07,-0.16,0.02,0.0,0.0,0.0
1752780794675,4.0,-2.0,8.0,-15.0,-5.0,3.0,-11.0,-7.0,-6.3,-1.0,0.07,-0.02,0.04,0.0,0.0,0.0
1752780794913,6.0,13.0,3.0,-4.0,-1.0,9.0,-6.9,-0.2,-0.5,-0.99,0.03,0.08,0.06,0.0,0.0,0.0
1752780794954,357.0,18.0,3.0,-4.0,5.0,22.0,-6.7,5.4,13.0,-0.99,0.02,0.16,-0.02,0.0,0.0,0.0
1752780794994,0.0,7.0,8.0,4.0,1.0,11.0,8.1,3.5,-3.6,-1.0,0.07,0.06,0.0,0.0,0.0,0.0
1752780795035,7.0,-28.0,23.0,10.0,7.0,-18.0,18.1,13.0,-34.4,-0.95,0.17,-0.26,0.06,0.0,0.0,0.0
1752780795078,16.0,-59.0,52.0,4.0,-2.0,-23.0,12.3,2.0,-26.0,-0.81,0.17,-0.54,0.11,0.0,0.0,0.0
1752780795113,7.0,-52.0,44.0,-7.0,10.0,-3.0,0.8,14.5,-7.2,-0.84,0.21,-0.5,0.07,0.0,0.0,0.0
1752780795160,3.0,-53.0,45.0,-3.0,10.0,-12.0,5.1,13.7,-16.3,-0.84,0.24,-0.48,0.02,0.0,0.0,0.0
1752780795194,7.0,-54.0,48.0,-4.0,3.0,-10.0,4.7,6.8,-14.1,-0.83,0.23,-0.5,0.05,0.0,0.0,0.0
1752780795231,18.0,-47.0,50.0,-2.0,-3.0,-11.0,4.3,2.8,-14.3,-0.84,0.24,-0.48,0.13,0.0,0.0,0.0
1752780795283,25.0,-38.0,46.0,-6.0,-0.0,-8.0,0.0,5.4,-13.7,-0.86,0.24,-0.41,0.19,0.0,0.0,0.0
1752780795317,28.0,-28.0,35.0,-3.0,-1.0,-13.0,1.5,4.1,-20.6,-0.89,0.22,-0.34,0.22,0.0,0.0,0.0
1752780795368,28.0,-20.0,23.0,-1.0,1.0,-0.0,0.4,3.5,-9.5,-0.94,0.14,-0.21,0.23,0.0,0.0,0.0
1752780795399,23.0,3.0,8.0,-6.0,-2.0,9.0,-9.1,-2.8,-1.0,-0.98,0.07,0.02,0.2,0.0,0.0,0.0
1752780795437,21.0,24.0,-2.0,-5.0,-2.0,9.0,-10.3,-3.8,1.5,-0.96,0.02,0.21,0.18,0.0,0.0,0.0
1752780795471,19.0,39.0,-10.0,-3.0,-2.0,14.0,-10.1,-2.4,7.5,-0.93,-0.02,0.34,0.15,0.0,0.0,0.0
1752780795519,17.0,49.0,-15.0,-4.0,-1.0,14.0,-11.7,-4.0,6.9,-0.9,-0.03,0.42,0.14,0.0,0.0,0.0
1752780795561,17.0,49.0,-16.0,-3.0,-1.0,11.0,-10.1,-2.9,5.4,-0.89,-0.04,0.43,0.13,0.0,0.0,0.0
1752780795711,32.0,-9.0,15.0,13.0,-8.0,-25.0,18.0,-4.1,-33.0,-0.95,0.11,-0.11,0.27,0.0,0.0,0.0
1752780795753,46.0,-40.0,45.0,11.0,-0.0,-32.0,13.1,8.5,-29.4,-0.81,0.14,-0.46,0.35,0.0,0.0,0.0
1752780795787,39.0,-40.0,52.0,-3.0,5.0,-4.0,-0.2,12.0,-8.1,-0.81,0.21,-0.47,0.28,0.0,0.0,0.0
1752780795823,27.0,-31.0,41.0,-8.0,2.0,-7.0,-2.9,7.0,-13.7,-0.88,0.24,-0.35,0.21,0.0,0.0,0.0
1752780795871,31.0,-32.0,39.0,-4.0,-1.0,-14.0,0.9,3.7,-20.0,-0.88,0.21,-0.35,0.23,0.0,0.0,0.0
1752780795912,33.0,-31.0,35.0,-4.0,-4.0,-10.0,0.8,-0.1,-17.6,-0.88,0.18,-0.35,0.26,0.0,0.0,0.0
1752780795949,29.0,-23.0,23.0,-2.0,-3.0,-3.0,-2.5,-0.2,-11.0,-0.93,0.13,-0.24,0.24,0.0,0.0,0.0
1752780795987,19.0,-6.0,12.0,-7.0,-3.0,3.0,-7.9,-0.4,-6.2,-0.98,0.09,-0.07,0.17,0.0,0.0,0.0
1752780796023,7.0,16.0,6.0,-9.0,3.0,10.0,-12.2,4.4,1.0,-0.99,0.07,0.1,0.08,0.0,0.0,0.0
1752780796073,4.0,24.0,4.0,-8.0,-1.0,10.0,-11.9,-1.0,-0.1,-0.98,0.05,0.21,0.04,0.0,0.0,0.0
1752780796114,7.0,19.0,4.0,-10.0,-2.0,8.0,-14.4,-3.3,0.7,-0.98,0.04,0.18,0.05,0.0,0.0,0.0
1752780796156,8.0,6.0,6.0,0.0,4.0,12.0,2.6,5.6,3.0,-0.99,0.05,0.05,0.07,0.0,0.0,0.0
1752780796203,14.0,-33.0,11.0,7.0,2.0,1.0,24.4,8.1,-31.6,-0.95,0.05,-0.29,0.12,0.0,0.0,0.0
1752780796236,25.0,-59.0,32.0,16.0,-17.0,-33.0,18.0,-9.5,-27.1,-0.83,0.05,-0.53,0.18,0.0,0.0,0.0
1752780796290,8.0,-24.0,14.0,-2.0,3.0,8.0,0.9,5.5,-1.0,-0.94,0.08,-0.3,0.11,0.0,0.0,0.0
1752780796320,355.0,5.0,17.0,-13.0,8.0,12.0,-14.5,10.9,2.8,-0.99,0.15,-0.0,-0.02,0.0,0.0,0.0
1752780796357,346.0,11.0,11.0,-14.0,5.0,17.0,-14.8,6.3,6.8,-0.98,0.08,0.1,-0.12,0.0,0.0,0.0
1752780796407,346.0,-6.0,6.0,-4.0,7.0,11.0,4.2,7.5,-3.2,-0.99,0.06,-0.04,-0.12,0.0,0.0,0.0
1752780796438,356.0,-38.0,9.0,-2.0,6.0,-4.0,13.4,7.1,-31.1,-0.94,0.08,-0.32,-0.03,0.0,0.0,0.0
1752780796474,17.0,-62.0,13.0,9.0,-16.0,-20.0,11.7,-8.3,-19.8,-0.84,-0.01,-0.52,0.13,0.0,0.0,0.0
1752780796524,1.0,-29.0,12.0,-7.0,6.0,6.0,-2.9,8.1,-3.0,-0.94,0.07,-0.32,0.03,0.0,0.0,0.0
1752780796557,355.0,-12.0,15.0,-13.0,4.0,5.0,-11.7,6.5,-4.8,-0.98,0.14,-0.1,-0.04,0.0,0.0,0.0
1752780796607,355.0,-2.0,12.0,-13.0,1.0,8.0,-13.5,3.2,-2.0,-0.99,0.11,-0.01,-0.04,0.0,0.0,0.0
1752780796641,357.0,-8.0,12.0,-14.0,2.0,9.0,0.6,2.1,-5.3,-0.99,0.1,-0.07,-0.03,0.0,0.0,0.0
1752780796674,2.0,-30.0,11.0,-4.0,3.0,-2.0,2.6,4.3,-9.7,-0.96,0.08,-0.26,0.02,0.0,0.0,0.0
1752780796724,14.0,-51.0,15.0,10.0,-16.0,-21.0,16.8,-14.1,-27.8,-0.89,0.06,-0.45,0.09,0.0,0.0,0.0
1752780796789,2.0,-20.0,13.0,1.0,9.0,10.0,-9.3,11.2,0.6,-0.96,0.09,-0.26,0.05,0.0,0.0,0.0
1752780796807,354.0,9.0,8.0,-16.0,3.0,14.0,-18.7,1.4,6.7,-0.99,0.06,0.08,-0.05,0.0,0.0,0.0
1752780796945,356.0,14.0,3.0,-13.0,2.0,21.0,14.0,-5.0,-22.5,-0.99,0.02,0.12,-0.04,0.0,0.0,0.0
1752780797084,348.0,23.0,0.0,-13.0,9.0,25.0,-14.6,4.0,10.3,-0.97,-0.02,0.2,-0.1,0.0,0.0,0.0
1752780797133,359.0,-14.0,1.0,11.0,6.0,3.0,14.2,3.4,-9.1,-0.99,0.01,-0.12,-0.01,0.0,0.0,0.0
1752780797274,343.0,32.0,1.0,-16.0,5.0,22.0,-19.9,5.4,13.9,-0.96,-0.02,0.26,-0.14,0.0,0.0,0.0
1752780797731,343.0,21.0,-1.0,13.0,-0.0,-33.0,19.2,0.1,-40.6,-0.99,0.05,-0.1,-0.02,0.0,0.0,0.0
1752780797767,2.0,-43.0,3.0,5.0,-3.0,-7.0,9.8,-2.5,-15.9,-0.93,0.01,-0.36,0.02,0.0,0.0,0.0
1752780797801,353.0,-10.0,2.0,-8.0,11.0,17.0,-10.9,11.9,8.3,-0.99,0.02,-0.08,-0.06,0.0,0.0,0.0
1752780797835,342.0,19.0,-0.0,-15.0,7.0,15.0,-18.0,4.0,5.4,-0.97,-0.03,0.16,-0.15,0.0,0.0,0.0
1752780797882,343.0,16.0,-2.0,-12.0,5.0,15.0,-7.2,6.6,1.2,-0.98,-0.04,0.14,-0.15,0.0,0.0,0.0
1752780797925,351.0,-18.0,0.0,5.0,2.0,-18.0,12.4,-0.9,-33.6,-0.99,0.01,-0.09,-0.1,0.0,0.0,0.0
1752780797968,359.0,-33.0,5.0,6.0,-5.0,-15.0,7.6,0.0,-17.3,-0.95,0.04,-0.3,-0.01,0.0,0.0,0.0
1752780798114,346.0,-2.0,-5.0,10.0,3.0,-24.0,13.5,3.0,-33.5,-0.99,-0.04,-0.02,-0.12,0.0,0.0,0.0
1752780798150,355.0,-32.0,4.0,11.0,-9.0,-31.0,13.7,-3.7,-20.9,-0.96,0.04,-0.28,-0.04,0.0,0.0,0.0
1752780798186,351.0,-6.0,1.0,-5.0,10.0,21.0,-14.4,8.9,12.2,-1.0,0.01,-0.05,-0.08,0.0,0.0,0.0
1752780798236,338.0,31.0,-0.0,-18.0,11.0,30.0,-23.2,11.0,21.6,-0.95,-0.05,0.26,-0.18,0.0,0.0,0.0
1752780798270,339.0,13.0,-4.0,8.0,7.0,4.0,7.8,6.3,-5.8,-0.96,-0.07,0.19,-0.2,0.0,0.0,0.0
1752780798317,350.0,-19.0,2.0,10.0,-9.0,-34.0,14.3,-8.1,-42.3,-0.98,0.03,-0.16,-0.09,0.0,0.0,0.0
1752780798351,353.0,-15.0,1.0,3.0,3.0,5.0,-7.6,8.8,10.0,-0.99,0.01,-0.13,-0.06,0.0,0.0,0.0
1752780798387,342.0,26.0,2.0,-22.0,10.0,33.0,-23.2,10.7,21.2,-0.96,-0.02,0.23,-0.15,0.0,0.0,0.0
1752780798434,340.0,24.0,-2.0,1.0,7.0,4.0,2.4,5.0,-12.7,-0.96,-0.05,0.2,-0.17,0.0,0.0,0.0
1752780798472,352.0,-13.0,1.0,1.0,-5.0,-19.0,3.0,-5.3,-28.4,-0.99,0.02,-0.07,-0.09,0.0,0.0,0.0
1752780798520,353.0,-6.0,-0.0,-12.0,5.0,14.0,-13.1,4.9,4.0,-1.0,0.0,-0.05,-0.06,0.0,0.0,0.0
1752780798551,345.0,17.0,-1.0,-16.0,9.0,19.0,-14.1,5.5,0.8,-0.98,-0.03,0.15,-0.13,0.0,0.0,0.0
1752780798589,346.0,8.0,0.0,-5.0,3.0,-3.0,-4.7,2.5,-15.1,-0.99,-0.01,0.07,-0.12,0.0,0.0,0.0
1752780798629,350.0,-6.0,1.0,-7.0,-0.0,-7.0,-6.2,-0.3,-15.1,-1.0,0.01,-0.05,-0.08,0.0,0.0,0.0
1752780798795,350.0,-6.0,1.0,-10.0,2.0,-1.0,-9.0,2.6,-9.5,-1.0,0.02,-0.05,-0.08,0.0,0.0,0.0
1752780798828,350.0,-5.0,1.0,-10.0,3.0,1.0,-9.2,3.2,-9.2,-1.0,0.02,-0.04,-0.09,0.0,0.0,0.0
1752780798864,351.0,-7.0,2.0,-8.0,2.0,-2.0,-6.8,2.2,-12.1,-0.99,0.02,-0.06,-0.08,0.0,0.0,0.0
1752780798901,352.0,-9.0,2.0,-10.0,1.0,-1.0,-8.5,1.9,-10.2,-0.99,0.02,-0.07,-0.07,0.0,0.0,0.0
1752780798938,352.0,-8.0,2.0,-11.0,2.0,1.0,-9.1,2.7,-9.0,-0.99,0.02,-0.07,-0.07,0.0,0.0,0.0
1752780799080,354.0,-15.0,2.0,-10.0,2.0,-1.0,-7.6,2.1,-10.3,-0.99,0.03,-0.1,-0.07,0.0,0.0,0.0
1752780799127,354.0,-17.0,2.0,-8.0,2.0,-3.0,-5.2,3.3,-12.8,-0.99,0.02,-0.14,-0.06,0.0,0.0,0.0
1752780799172,355.0,-21.0,3.0,-8.0,0.0,-5.0,-4.1,0.9,-14.4,-0.98,0.03,-0.18,-0.05,0.0,0.0,0.0
1752780799213,355.0,-21.0,3.0,-10.0,2.0,-1.0,-6.8,2.7,-9.9,-0.98,0.03,-0.18,-0.04,0.0,0.0,0.0
1752780799251,355.0,-21.0,4.0,-9.0,3.0,-2.0,-5.2,2.7,-13.2,-0.98,0.04,-0.18,-0.04,0.0,0.0,0.0
1752780799289,357.0,-24.0,4.0,-9.0,0.0,-6.0,-4.7,0.3,-14.4,-0.98,0.04,-0.21,-0.02,0.0,0.0,0.0
1752780799343,359.0,-25.0,4.0,-10.0,1.0,-3.0,-4.7,2.6,-10.9,-0.98,0.04,-0.21,-0.01,0.0,0.0,0.0
1752780799379,359.0,-24.0,6.0,-9.0,2.0,-1.0,-5.7,2.6,-10.2,-0.98,0.05,-0.21,-0.01,0.0,0.0,0.0
1752780799420,2.0,-28.0,7.0,-9.0,1.0,-5.0,-2.8,1.4,-13.5,-0.97,0.05,-0.23,0.01,0.0,0.0,0.0
1752780799563,6.0,-32.0,10.0,-3.0,-3.0,-11.0,4.7,-1.2,-16.8,-0.96,0.06,-0.28,0.05,0.0,0.0,0.0
1752780799604,9.0,-53.0,18.0,-6.0,3.0,-7.0,1.2,4.9,-12.0,-0.88,0.07,-0.46,0.07,0.0,0.0,0.0
1752780799647,7.0,-52.0,18.0,-7.0,-0.0,-9.0,1.8,1.6,-15.1,-0.89,0.08,-0.45,0.06,0.0,0.0,0.0
1752780799694,8.0,-53.0,18.0,-5.0,0.0,-8.0,2.4,2.3,-13.3,-0.88,0.07,-0.46,0.06,0.0,0.0,0.0
1752780799728,8.0,-53.0,17.0,-6.0,0.0,-9.0,2.1,2.2,-14.3,-0.89,0.07,-0.45,0.06,0.0,0.0,0.0
1752780799764,8.0,-53.0,17.0,-3.0,-2.0,-15.0,5.2,-0.3,-20.3,-0.88,0.07,-0.46,0.06,0.0,0.0,0.0
1752780799805,7.0,-48.0,9.0,-0.0,1.0,-11.0,6.9,2.5,-16.4,-0.91,0.04,-0.41,0.06,0.0,0.0,0.0
1752780799844,1.0,-25.0,1.0,-7.0,3.0,2.0,-5.6,2.5,-6.0,-0.98,0.0,-0.22,0.01,0.0,0.0,0.0
1752780799880,355.0,1.0,-5.0,-9.0,5.0,6.0,-10.6,3.7,-4.4,-1.0,-0.04,0.01,-0.04,0.0,0.0,0.0
1752780799928,352.0,21.0,-9.0,-11.0,2.0,9.0,-14.7,0.2,0.0,-0.98,-0.08,0.15,-0.07,0.0,0.0,0.0
1752780799964,353.0,26.0,-11.0,-8.0,2.0,4.0,-12.5,0.6,-4.4,-0.97,-0.1,0.22,-0.06,0.0,0.0,0.0
1752780800005,354.0,27.0,-11.0,-8.0,2.0,6.0,-12.7,0.5,-3.0,-0.97,-0.1,0.23,-0.05,0.0,0.0,0.0
1752780800047,354.0,29.0,-12.0,-8.0,1.0,5.0,-13.4,0.3,-2.3,-0.96,-0.1,0.25,-0.05,0.0,0.0,0.0
1752780800081,354.0,33.0,-12.0,-9.0,2.0,8.0,-13.5,0.4,-1.6,-0.95,-0.11,0.28,-0.05,0.0,0.0,0.0
1752780800131,354.0,33.0,-12.0,-8.0,2.0,6.0,-13.9,0.5,-1.5,-0.95,-0.11,0.28,-0.05,0.0,0.0,0.0
1752780800172,354.0,34.0,-12.0,-9.0,2.0,7.0,-14.6,-0.5,0.5,-0.95,-0.11,0.29,-0.05,0.0,0.0,0.0
1752780800214,354.0,31.0,-12.0,-14.0,3.0,20.0,-17.1,3.2,13.5,-0.95,-0.11,0.28,-0.05,0.0,0.0,0.0
1752780800255,359.0,9.0,-6.0,4.0,9.0,6.0,6.6,9.1,-13.0,-1.0,-0.06,0.08,-0.01,0.0,0.0,0.0
1752780800296,10.0,-34.0,-6.0,4.0,-12.0,-13.0,8.5,-6.5,-25.1,-0.95,-0.07,-0.28,0.08,0.0,0.0,0.0
1752780800332,14.0,-47.0,-2.0,-6.0,-1.0,-7.0,-1.2,-0.2,-13.3,-0.91,-0.06,-0.39,0.11,0.0,0.0,0.0
1752780800482,8.0,-48.0,5.0,-6.0,-1.0,-8.0,0.8,-0.5,-14.4,-0.91,-0.02,-0.39,0.09,0.0,0.0,0.0
1752780800516,9.0,-48.0,5.0,-6.0,-0.0,-7.0,0.8,0.5,-13.2,-0.91,0.0,-0.41,0.07,0.0,0.0,0.0
1752780800566,8.0,-48.0,6.0,-7.0,-1.0,-7.0,0.5,-0.2,-12.9,-0.91,0.0,-0.41,0.07,0.0,0.0,0.0
1752780800597,9.0,-48.0,6.0,-7.0,-1.0,-7.0,0.7,-0.3,-13.7,-0.91,0.0,-0.41,0.07,0.0,0.0,0.0
1752780800633,9.0,-49.0,6.0,-6.0,-0.0,-7.0,1.1,0.6,-13.3,-0.91,0.0,-0.41,0.07,0.0,0.0,0.0
1752780800679,9.0,-49.0,6.0,-7.0,-1.0,-7.0,0.8,-0.1,-13.5,-0.91,0.01,-0.41,0.07,0.0,0.0,0.0
1752780800836,9.0,-49.0,6.0,-8.0,-0.0,-6.0,1.3,1.3,-13.5,-0.91,0.01,-0.42,0.07,0.0,0.0,0.0
1752780800868,9.0,-50.0,7.0,-5.0,0.0,-6.0,2.4,1.1,-12.2,-0.9,0.01,-0.43,0.07,0.0,0.0,0.0
1752780800905,10.0,-51.0,9.0,-7.0,-6.0,-6.0,2.0,-0.0,-15.3,-0.9,0.02,-0.44,0.08,0.0,0.0,0.0
1752780800943,9.0,-54.0,10.0,-6.0,-2.0,-7.0,2.2,-0.4,-13.3,-0.89,0.02,-0.46,0.07,0.0,0.0,0.0
1752780800983,7.0,-55.0,10.0,8.0,6.0,-6.0,12.7,3.2,-15.6,-0.88,0.03,-0.47,0.06,0.0,0.0,0.0
1752780801027,4.0,-61.0,10.0,-5.0,2.0,-8.0,4.1,2.8,-12.0,-0.86,0.03,-0.5,0.03,0.0,0.0,0.0
1752780801066,5.0,-65.0,14.0,12.0,1.0,-27.0,21.6,1.7,-30.5,-0.84,0.04,-0.54,0.03,0.0,0.0,0.0
1752780801106,7.0,-67.0,10.0,-4.0,-3.0,-9.0,4.5,-1.1,-12.3,-0.83,0.01,-0.55,0.05,0.0,0.0,0.0
1752780801144,2.0,-62.0,1.0,-5.0,2.0,-8.0,2.6,2.1,-12.4,-0.86,-0.0,-0.51,0.02,0.0,0.0,0.0
1752780801286,358.0,-52.0,-4.0,-5.0,0.0,-8.0,2.2,0.0,-14.0,-0.88,-0.0,-0.48,-0.01,0.0,0.0,0.0
1752780801333,357.0,-49.0,-4.0,-7.0,1.0,-7.0,0.7,0.5,-13.8,-0.9,-0.01,-0.43,-0.02,0.0,0.0,0.0
1752780801576,351.0,-27.0,4.0,-8.0,3.0,-8.0,0.7,1.3,-14.0,-0.92,-0.0,-0.4,-0.04,0.0,0.0,0.0
1752780801719,348.0,-55.0,3.0,-5.0,3.0,-7.0,3.2,3.4,-11.8,-0.88,0.07,-0.45,-0.09,0.0,0.0,0.0
1752780801768,349.0,-61.0,3.0,-5.0,3.0,-1.0,3.5,2.6,-7.0,-0.86,0.06,-0.5,-0.08,0.0,0.0,0.0
1752780801802,351.0,-71.0,5.0,-2.0,1.0,-9.0,20.2,4.5,-33.8,-0.81,0.07,-0.57,-0.07,0.0,0.0,0.0
1752780801936,352.0,-81.0,4.0,-2.0,2.0,-10.0,8.3,3.0,-10.6,-0.76,0.05,-0.65,-0.05,0.0,0.0,0.0
1752780802086,5.0,-80.0,101.0,-1.0,3.0,-9.0,10.3,5.6,-8.9,-0.7,0.09,-0.71,0.02,0.0,0.0,0.0
1752780802133,7.0,-77.0,103.0,-0.0,1.0,-9.0,9.5,2.4,-9.2,-0.69,0.11,-0.71,0.04,0.0,0.0,0.0
1752780802169,12.0,-74.0,106.0,0.0,1.0,-10.0,9.8,3.6,-8.7,-0.68,0.12,-0.72,0.07,0.0,0.0,0.0
1752780802210,14.0,-72.0,108.0,1.0,3.0,-9.0,9.6,6.1,-8.1,-0.67,0.13,-0.73,0.08,0.0,0.0,0.0
1752780802252,16.0,-71.0,109.0,1.0,0.0,-10.0,9.2,2.1,-7.9,-0.66,0.13,-0.73,0.1,0.0,0.0,0.0
1752780802286,19.0,-70.0,111.0,1.0,0.0,-10.0,10.2,4.1,-9.1,-0.65,0.12,-0.74,0.11,0.0,0.0,0.0
1752780802336,20.0,-69.0,112.0,2.0,2.0,-9.0,11.1,4.8,-7.8,-0.65,0.12,-0.74,0.11,0.0,0.0,0.0
1752780802369,21.0,-69.0,111.0,1.0,1.0,-11.0,10.0,4.2,-9.3,-0.65,0.12,-0.74,0.12,0.0,0.0,0.0
1752780802410,21.0,-69.0,113.0,1.0,1.0,-10.0,10.1,4.6,-8.1,-0.64,0.12,-0.75,0.12,0.0,0.0,0.0
1752780802453,22.0,-68.0,112.0,1.0,1.0,-9.0,10.0,5.2,-7.8,-0.65,0.12,-0.74,0.12,0.0,0.0,0.0
1752780802487,23.0,-68.0,111.0,0.0,1.0,-7.0,8.4,5.5,-7.0,-0.65,0.12,-0.74,0.13,0.0,0.0,0.0
1752780802537,26.0,-67.0,110.0,1.0,2.0,-9.0,10.0,6.0,-7.9,-0.64,0.12,-0.74,0.14,0.0,0.0,0.0
1752780802584,26.0,-67.0,109.0,1.0,2.0,-9.0,10.3,5.3,-8.1,-0.64,0.12,-0.74,0.15,0.0,0.0,0.0
1752780802617,27.0,-66.0,106.0,1.0,2.0,-8.0,10.4,5.8,-8.5,-0.65,0.12,-0.74,0.16,0.0,0.0,0.0
1752780802654,30.0,-65.0,103.0,2.0,2.0,-10.0,11.1,9.0,-8.4,-0.65,0.12,-0.73,0.18,0.0,0.0,0.0
1752780802688,33.0,-63.0,99.0,0.0,2.0,-8.0,9.6,4.1,-8.7,-0.65,0.13,-0.72,0.19,0.0,0.0,0.0
1752780802738,45.0,-55.0,92.0,1.0,-5.0,-12.0,9.4,1.0,-12.2,-0.65,0.15,-0.7,0.25,0.0,0.0,0.0
1752780802779,47.0,-53.0,90.0,1.0,2.0,-9.0,8.4,8.4,-9.5,-0.65,0.16,-0.69,0.28,0.0,0.0,0.0
1752780802813,46.0,-51.0,87.0,-0.0,1.0,-9.0,6.9,6.0,-9.9,-0.66,0.19,-0.67,0.28,0.0,0.0,0.0
1752780802848,51.0,-46.0,83.0,-1.0,-6.0,-9.0,7.6,-0.5,-10.9,-0.66,0.21,-0.64,0.32,0.0,0.0,0.0
1752780802888,56.0,-42.0,81.0,-4.0,-5.0,-5.0,6.2,1.6,-10.2,-0.66,0.22,-0.62,0.35,0.0,0.0,0.0
1752780802931,54.0,-42.0,81.0,0.0,-1.0,-12.0,6.6,6.4,-13.3,-0.66,0.23,-0.62,0.35,0.0,0.0,0.0
1752780802975,54.0,-41.0,78.0,0.0,-3.0,-6.0,6.5,4.2,-7.8,-0.68,0.24,-0.6,0.34,0.0,0.0,0.0
1752780803018,53.0,-38.0,74.0,-1.0,1.0,-7.0,5.1,10.4,-7.5,-0.69,0.26,-0.58,0.35,0.0,0.0,0.0
1752780803061,52.0,-37.0,73.0,0.0,1.0,-12.0,1.8,7.0,-10.3,-0.71,0.27,-0.56,0.34,0.0,0.0,0.0
1752780803099,47.0,-35.0,76.0,-5.0,0.0,-11.0,2.7,9.1,-14.2,-0.71,0.32,-0.54,0.31,0.0,0.0,0.0
1752780803347,38.0,-11.0,78.0,-10.0,-1.0,-7.0,-9.3,6.8,-8.7,-0.75,0.37,-0.45,0.31,0.0,0.0,0.0
1752780803389,42.0,-6.0,77.0,-7.0,-2.0,-5.0,-6.0,7.2,-7.3,-0.73,0.55,-0.29,0.27,0.0,0.0,0.0
1752780803438,43.0,-1.0,77.0,-8.0,-1.0,-7.0,-9.4,7.5,-8.3,-0.73,0.57,-0.24,0.29,0.0,0.0,0.0
1752780803476,30.0,-0.0,75.0,-5.0,-1.0,-4.0,-4.4,7.3,-5.4,-0.76,0.59,-0.18,0.22,0.0,0.0,0.0
1752780803613,343.0,-0.0,76.0,-3.0,-2.0,2.0,-2.7,8.4,0.1,-0.78,0.61,0.08,-0.11,0.0,0.0,0.0
1752780803660,329.0,-1.0,77.0,-3.0,0.0,5.0,-2.3,11.6,3.2,-0.76,0.6,0.15,-0.21,0.0,0.0,0.0
1752780803696,314.0,-0.0,78.0,-5.0,4.0,6.0,-6.7,12.8,6.3,-0.71,0.58,0.24,-0.3,0.0,0.0,0.0
1752780803736,302.0,1.0,75.0,-4.0,3.0,14.0,-3.5,12.8,11.5,-0.69,0.54,0.29,-0.37,0.0,0.0,0.0
1752780803780,290.0,-5.0,70.0,-0.0,4.0,14.0,-0.8,13.4,10.1,-0.68,0.5,0.29,-0.44,0.0,0.0,0.0
1752780803830,278.0,-8.0,68.0,-17.0,10.0,21.0,-15.7,19.2,17.1,-0.63,0.48,0.3,-0.54,0.0,0.0,0.0
1752780803864,271.0,-8.0,75.0,-2.0,-1.0,14.0,1.8,13.3,6.5,-0.57,0.49,0.36,-0.55,0.0,0.0,0.0
1752780803904,267.0,-12.0,76.0,-0.0,3.0,9.0,1.3,11.9,6.9,-0.54,0.51,0.34,-0.57,0.0,0.0,0.0
1752780803947,265.0,-13.0,76.0,-1.0,2.0,9.0,1.9,11.6,7.2,-0.53,0.51,0.35,-0.58,0.0,0.0,0.0
1752780804094,261.0,-12.0,64.0,0.0,2.0,9.0,2.0,9.4,3.3,-0.53,0.47,0.35,-0.62,0.0,0.0,0.0
1752780804247,260.0,-2.0,1.0,0.0,2.0,9.0,0.4,1.7,-0.4,-0.64,0.03,0.01,-0.77,0.0,0.0,0.0
1752780804394,256.0,1.0,-9.0,0.0,2.0,9.0,0.1,0.4,-0.2,-0.62,-0.05,-0.05,-0.78,0.0,0.0,0.0
1752780804444,256.0,1.0,-9.0,0.0,2.0,9.0,0.1,0.3,-0.2,-0.61,-0.05,-0.06,-0.79,0.0,0.0,0.0
1752780804683,252.0,1.0,-10.0,0.0,2.0,9.0,0.0,0.2,-0.2,-0.6,-0.06,-0.06,-0.79,0.0,0.0,0.0
1752780804730,249.0,1.0,-10.0,0.0,2.0,9.0,0.1,0.2,-0.2,-0.56,-0.05,-0.07,-0.82,0.0,0.0,0.0
1752780804778,248.0,0.0,-10.0,0.0,2.0,9.0,0.0,0.2,-0.2,-0.56,-0.05,-0.07,-0.83,0.0,0.0,0.0
1752780804918,246.0,-1.0,-11.0,-0.0,2.0,9.0,-0.0,0.1,-0.2,-0.55,-0.05,-0.08,-0.83,0.0,0.0,0.0
1752780804958,246.0,-1.0,-11.0,-0.0,2.0,9.0,0.0,0.1,-0.2,-0.54,-0.04,-0.09,-0.83,0.0,0.0,0.0
1752780804998,246.0,-2.0,-11.0,-0.0,2.0,9.0,0.0,0.2,-0.1,-0.54,-0.04,-0.09,-0.84,0.0,0.0,0.0
1752780805045,245.0,-3.0,-11.0,-1.0,2.0,9.0,0.0,0.1,-0.2,-0.54,-0.03,-0.1,-0.84,0.0,0.0,0.0
1752780805095,245.0,-4.0,-12.0,-1.0,2.0,9.0,0.0,0.1,-0.2,-0.54,-0.03,-0.11,-0.84,0.0,0.0,0.0
1752780805150,245.0,-5.0,-13.0,-1.0,2.0,9.0,0.0,0.1,-0.2,-0.54,-0.02,-0.12,-0.84,0.0,0.0,0.0
1752780805201,245.0,-5.0,-13.0,-1.0,2.0,9.0,0.0,0.1,-0.1,-0.53,-0.02,-0.12,-0.84,0.0,0.0,0.0
1752780805247,244.0,-5.0,-13.0,-1.0,2.0,9.0,0.1,0.1,-0.1,-0.53,-0.02,-0.12,-0.84,0.0,0.0,0.0
1752780805297,244.0,-5.0,-13.0,-1.0,2.0,9.0,0.0,0.1,-0.2,-0.53,-0.02,-0.12,-0.84,0.0,0.0,0.0
1752780805338,244.0,-5.0,-13.0,-1.0,2.0,9.0,0.0,0.1,-0.2,-0.52,-0.02,-0.12,-0.84,0.0,0.0,0.0
1752780805386,243.0,-5.0,-13.0,-1.0,2.0,9.0,0.1,0.1,-0.1,-0.52,-0.02,-0.12,-0.85,0.0,0.0,0.0
1752780805543,244.0,-4.0,-11.0,-0.0,2.0,10.0,0.2,-0.0,0.0,-0.53,-0.02,-0.1,-0.84,0.0,0.0,0.0
1752780805676,242.0,-4.0,-8.0,-1.0,1.0,10.0,0.0,0.1,-0.1,-0.52,-0.02,-0.09,-0.85,0.0,0.0,0.0
1752780805709,241.0,-4.0,-8.0,-1.0,1.0,9.0,0.0,0.0,-0.2,-0.51,-0.0,-0.08,-0.86,0.0,0.0,0.0
1752780805848,241.0,-4.0,-8.0,-1.0,2.0,9.0,0.0,-0.0,-0.2,-0.51,-0.0,-0.08,-0.86,0.0,0.0,0.0
1752780805998,239.0,-5.0,-10.0,-1.0,2.0,9.0,0.1,0.0,-0.1,-0.49,-0.0,-0.1,-0.87,0.0,0.0,0.0
1752780806148,238.0,-5.0,-9.0,-1.0,2.0,9.0,0.0,-0.0,-0.2,-0.49,0.0,-0.1,-0.87,0.0,0.0,0.0
1752780806198,238.0,-5.0,-10.0,-1.0,2.0,9.0,0.0,0.1,-0.1,-0.48,-0.0,-0.1,-0.87,0.0,0.0,0.0
1752780806248,237.0,-5.0,-10.0,-1.0,2.0,9.0,0.0,-0.0,-0.2,-0.48,-0.0,-0.1,-0.87,0.0,0.0,0.0
1752780806298,237.0,-5.0,-10.0,-1.0,2.0,9.0,0.0,0.0,-0.1,-0.48,-0.0,-0.09,-0.87,0.0,0.0,0.0
1752780806432,236.0,-5.0,-10.0,-1.0,2.0,9.0,0.1,0.0,-0.1,-0.47,-0.0,-0.09,-0.88,0.0,0.0,0.0
1752780806682,236.0,-5.0,-10.0,-1.0,2.0,9.0,0.0,0.0,-0.1,-0.47,-0.0,-0.09,-0.88,0.0,0.0,0.0
1752780806729,234.0,-5.0,-10.0,-1.0,2.0,9.0,0.0,0.0,-0.1,-0.45,-0.0,-0.09,-0.89,0.0,0.0,0.0
1752780806781,234.0,-5.0,-10.0,-1.0,2.0,9.0,0.1,0.0,-0.1,-0.45,-0.0,-0.09,-0.89,0.0,0.0,0.0
1752780806799,234.0,-5.0,-10.0,-1.0,2.0,9.0,0.0,0.0,-0.1,-0.45,-0.0,-0.09,-0.89,0.0,0.0,0.0
1752780806841,233.0,-5.0,-10.0,-1.0,2.0,9.0,0.0,0.0,-0.2,-0.45,-0.0,-0.09,-0.89,0.0,0.0,0.0
1752780806886,233.0,-5.0,-10.0,-1.0,2.0,9.0,0.0,0.1,-0.1,-0.45,-0.0,-0.09,-0.89,0.0,0.0,0.0
1752780806929,233.0,-5.0,-10.0,-1.0,2.0,9.0,0.0,0.0,-0.2,-0.45,-0.0,-0.09,-0.89,0.0,0.0,0.0
1752780806972,233.0,-5.0,-10.0,-1.0,2.0,9.0,0.0,0.0,-0.1,-0.45,-0.0,-0.09,-0.89,0.0,0.0,0.0
1752780807008,233.0,-5.0,-10.0,-1.0,2.0,9.0,0.0,0.0,-0.2,-0.44,-0.0,-0.09,-0.89,0.0,0.0,0.0
1752780807048,233.0,-5.0,-10.0,-1.0,2.0,9.0,0.0,0.0,-0.2,-0.44,-0.0,-0.09,-0.89,0.0,0.0,0.0
1752780807092,232.0,-5.0,-10.0,-1.0,2.0,9.0,0.1,0.0,-0.2,-0.44,-0.0,-0.09,-0.89,0.0,0.0,0.0
1752780807137,232.0,-5.0,-10.0,-1.0,2.0,10.0,0.1,0.0,-0.2,-0.44,-0.0,-0.09,-0.89,0.0,0.0,0.0
1752780807389,232.0,-5.0,-10.0,-1.0,2.0,9.0,0.0,0.0,-0.2,-0.44,-0.0,-0.09,-0.89,0.0,0.0,0.0
1752780807423,232.0,-5.0,-10.0,-1.0,2.0,9.0,0.0,0.0,-0.1,-0.43,-0.0,-0.1,-0.9,0.0,0.0,0.0
1752780807459,231.0,-4.0,-10.0,-1.0,2.0,9.0,0.0,0.0,-0.1,-0.43,-0.0,-0.09,-0.9,0.0,0.0,0.0
1752780807500,231.0,-4.0,-10.0,-1.0,2.0,9.0,0.0,0.0,-0.2,-0.43,-0.0,-0.09,-0.9,0.0,0.0,0.0
1752780807649,231.0,-4.0,-10.0,-1.0,2.0,9.0,0.0,0.0,-0.1,-0.43,-0.0,-0.09,-0.9,0.0,0.0,0.0
1752780807690,231.0,-4.0,-10.0,-1.0,2.0,9.0,0.0,0.0,-0.1,-0.43,-0.0,-0.09,-0.9,0.0,0.0,0.0
1752780807733,231.0,-4.0,-10.0,-1.0,2.0,9.0,0.0,0.0,-0.1,-0.43,-0.0,-0.09,-0.9,0.0,0.0,0.0
1752780807784,231.0,-4.0,-10.0,-1.0,2.0,9.0,0.0,0.0,-0.1,-0.43,-0.0,-0.09,-0.9,0.0,0.0,0.0
1752780807817,231.0,-4.0,-10.0,-1.0,2.0,9.0,0.0,0.0,-0.2,-0.43,-0.0,-0.09,-0.9,0.0,0.0,0.0
1752780807851,231.0,-4.0,-10.0,-1.0,2.0,10.0,0.0,0.0,-0.2,-0.43,-0.0,-0.1,-0.9,0.0,0.0,0.0
1752780807999,230.0,-4.0,-10.0,-1.0,2.0,9.0,0.0,-0.0,-0.2,-0.42,-0.0,-0.09,-0.9,0.0,0.0,0.0
1752780808037,230.0,-4.0,-10.0,-1.0,2.0,9.0,0.0,0.0,-0.1,-0.42,-0.0,-0.09,-0.9,0.0,0.0,0.0
1752780808087,230.0,-4.0,-10.0,-1.0,2.0,9.0,0.0,0.0,-0.2,-0.42,-0.0,-0.09,-0.9,0.0,0.0,0.0
1752780808111,230.0,-4.0,-10.0,-1.0,2.0,9.0,0.0,0.0,-0.2,-0.42,-0.0,-0.09,-0.9,0.0,0.0,0.0
1752780808155,230.0,-4.0,-10.0,-1.0,2.0,9.0,0.0,0.0,-0.2,-0.42,-0.0,-0.09,-0.9,0.0,0.0,0.0
1752780808509,230.0,-4.0,-10.0,-1.0,2.0,9.0,0.0,-0.0,-0.2,-0.42,-0.0,-0.1,-0.9,0.0,0.0,0.0
1752780808553,230.0,-4.0,-10.0,-1.0,2.0,9.0,0.0,0.0,-0.1,-0.42,-0.0,-0.1,-0.9,0.0,0.0,0.0
1752780808588,230.0,-4.0,-10.0,-1.0,2.0,9.0,0.0,0.0,-0.1,-0.42,-0.0,-0.1,-0.9,0.0,0.0,0.0
1752780808630,229.0,-4.0,-10.0,-1.0,2.0,9.0,0.0,0.0,-0.1,-0.42,-0.0,-0.1,-0.9,0.0,0.0,0.0
1752780808669,229.0,-4.0,-10.0,-1.0,2.0,9.0,0.1,0.0,-0.2,-0.41,-0.0,-0.1,-0.9,0.0,0.0,0.0
1752780808805,229.0,-4.0,-10.0,-1.0,2.0,9.0,0.0,0.0,-0.2,-0.42,-0.0,-0.1,-0.9,0.0,0.0,0.0
1752780808842,229.0,-4.0,-10.0,-1.0,2.0,9.0,0.1,0.0,-0.1,-0.41,-0.0,-0.1,-0.91,0.0,0.0,0.0
1752780808885,229.0,-4.0,-10.0,-1.0,2.0,10.0,0.0,0.0,-0.1,-0.41,-0.0,-0.09,-0.9,0.0,0.0,0.0
1752780808927,229.0,-4.0,-10.0,-1.0,2.0,10.0,0.0,0.0,-0.1,-0.41,-0.0,-0.1,-0.9,0.0,0.0,0.0
1752780808962,229.0,-4.0,-10.0,-1.0,2.0,9.0,0.0,-0.0,-0.1,-0.41,-0.0,-0.1,-0.91,0.0,0.0,0.0
1752780809003,229.0,-4.0,-10.0,-1.0,2.0,9.0,0.0,0.0,-0.1,-0.41,-0.0,-0.1,-0.91,0.0,0.0,0.0
1752780809155,229.0,-4.0,-10.0,-1.0,2.0,9.0,0.0,0.0,-0.1,-0.41,-0.0,-0.1,-0.91,0.0,0.0,0.0
1752780809189,229.0,-4.0,-10.0,-1.0,2.0,9.0,0.0,-0.0,-0.1,-0.41,-0.0,-0.1,-0.91,0.0,0.0,0.0
1752780809231,229.0,-4.0,-10.0,-1.0,2.0,9.0,0.0,0.0,-0.1,-0.41,-0.0,-0.1,-0.91,0.0,0.0,0.0
1752780809272,229.0,-4.0,-10.0,-1.0,2.0,9.0,0.0,0.0,-0.1,-0.41,-0.0,-0.1,-0.91,0.0,0.0,0.0
1752780809309,229.0,-4.0,-10.0,-1.0,2.0,9.0,0.0,0.0,-0.2,-0.41,-0.0,-0.1,-0.91,0.0,0.0,0.0
1752780809351,229.0,-4.0,-10.0,-1.0,2.0,9.0,0.1,-0.0,-0.1,-0.41,-0.0,-0.1,-0.91,0.0,0.0,0.0
1752780809391,229.0,-4.0,-10.0,-1.0,2.0,9.0,0.0,0.0,-0.1,-0.41,-0.0,-0.1,-0.91,0.0,0.0,0.0
1752780809430,229.0,-4.0,-10.0,-1.0,2.0,9.0,0.0,0.0,-0.1,-0.41,-0.0,-0.1,-0.91,0.0,0.0,0.0
1752780809464,229.0,-4.0,-10.0,-1.0,2.0,9.0,0.0,0.0,-0.1,-0.41,-0.0,-0.1,-0.91,0.0,0.0,0.0
1752780809707,229.0,-4.0,-10.0,-1.0,2.0,9.0,0.0,0.0,-0.2,-0.41,-0.0,-0.1,-0.91,0.0,0.0,0.0
1752780809850,228.0,-4.0,-10.0,-1.0,2.0,9.0,0.1,0.0,-0.1,-0.41,0.0,-0.1,-0.91,0.0,0.0,0.0
1752780809994,228.0,-4.0,-10.0,-1.0,2.0,9.0,0.0,0.0,-0.1,-0.41,0.0,-0.1,-0.91,0.0,0.0,0.0
1752780810137,228.0,-4.0,-10.0,-1.0,2.0,9.0,0.0,0.0,-0.1,-0.41,0.0,-0.1,-0.91,0.0,0.0,0.0
1752780810280,228.0,-4.0,-10.0,-1.0,2.0,9.0,0.0,0.0,-0.1,-0.4,0.0,-0.1,-0.91,0.0,0.0,0.0
1752780810330,228.0,-4.0,-10.0,-1.0,2.0,9.0,0.0,0.0,-0.2,-0.4,-0.0,-0.1,-0.91,0.0,0.0,0.0
1752780810460,228.0,-4.0,-10.0,-1.0,2.0,9.0,0.0,0.0,-0.2,-0.4,-0.0,-0.09,-0.91,0.0,0.0,0.0
1752780810603,228.0,-4.0,-10.0,-1.0,2.0,9.0,0.0,-0.0,-0.2,-0.4,-0.0,-0.09,-0.91,0.0,0.0,0.0
1752780810647,228.0,-4.0,-10.0,-1.0,2.0,9.0,0.1,0.0,-0.1,-0.4,-0.0,-0.09,-0.91,0.0,0.0,0.0
1752780810795,228.0,-4.0,-10.0,-1.0,2.0,9.0,0.0,0.0,-0.2,-0.4,-0.0,-0.09,-0.91,0.0,0.0,0.0
1752780810850,228.0,-4.0,-10.0,-1.0,2.0,9.0,0.0,0.0,-0.2,-0.4,-0.0,-0.09,-0.91,0.0,0.0,0.0
1752780810873,228.0,-4.0,-10.0,-1.0,2.0,9.0,0.0,0.0,-0.2,-0.4,-0.0,-0.09,-0.91,0.0,0.0,0.0
1752780810906,228.0,-4.0,-10.0,-1.0,2.0,9.0,0.0,-0.0,-0.2,-0.4,-0.0,-0.09,-0.91,0.0,0.0,0.0
1752780810949,228.0,-4.0,-10.0,-1.0,2.0,10.0,0.0,0.0,-0.1,-0.4,-0.0,-0.09,-0.91,0.0,0.0,0.0
1752780810997,228.0,-4.0,-10.0,-1.0,2.0,9.0,0.0,-0.0,-0.2,-0.4,-0.0,-0.1,-0.91,0.0,0.0,0.0
1752780811041,228.0,-4.0,-10.0,-1.0,2.0,9.0,0.0,0.0,-0.1,-0.4,-0.0,-0.1,-0.91,0.0,0.0,0.0
1752780811080,228.0,-4.0,-10.0,-1.0,2.0,9.0,0.0,0.0,-0.1,-0.4,-0.0,-0.1,-0.91,0.0,0.0,0.0
1752780811123,228.0,-4.0,-10.0,-1.0,2.0,9.0,0.0,0.0,-0.2,-0.4,-0.0,-0.1,-0.91,0.0,0.0,0.0
1752780811158,228.0,-4.0,-10.0,-1.0,2.0,9.0,0.0,0.0,-0.2,-0.4,-0.0,-0.1,-0.91,0.0,0.0,0.0
1752780811203,228.0,-4.0,-10.0,-1.0,2.0,9.0,0.0,0.0,-0.2,-0.4,-0.0,-0.1,-0.91,0.0,0.0,0.0
1752780811243,228.0,-4.0,-10.0,-1.0,2.0,9.0,0.0,0.0,-0.2,-0.4,-0.0,-0.1,-0.91,0.0,0.0,0.0
1752780811280,228.0,-4.0,-10.0,-1.0,2.0,9.0,0.0,-0.0,-0.1,-0.4,-0.0,-0.1,-0.91,0.0,0.0,0.0
1752780811327,228.0,-4.0,-10.0,-1.0,2.0,9.0,0.1,0.0,-0.1,-0.4,-0.0,-0.1,-0.91,0.0,0.0,0.0
1752780811364,228.0,-4.0,-10.0,-1.0,2.0,9.0,0.0,0.0,-0.2,-0.4,-0.0,-0.1,-0.91,0.0,0.0,0.0
1752780811605,228.0,-4.0,-10.0,-1.0,2.0,9.0,0.0,0.0,-0.2,-0.4,-0.0,-0.1,-0.91,0.0,0.0,0.0
1752780811653,228.0,-4.0,-10.0,-1.0,2.0,9.0,0.0,0.0,-0.2,-0.4,-0.0,-0.1,-0.91,0.0,0.0,0.0
1752780811795,228.0,-4.0,-10.0,-1.0,2.0,9.0,0.0,0.0,-0.1,-0.4,-0.0,-0.1,-0.91,0.0,0.0,0.0
1752780811832,228.0,-4.0,-10.0,-1.0,2.0,9.0,0.0,0.0,-0.1,-0.4,-0.0,-0.1,-0.91,0.0,0.0,0.0
1752780811874,228.0,-4.0,-10.0,-1.0,2.0,9.0,0.0,0.0,-0.1,-0.4,-0.0,-0.1,-0.91,0.0,0.0,0.0
1752780811908,228.0,-4.0,-10.0,-1.0,2.0,9.0,0.0,-0.0,-0.2,-0.4,-0.0,-0.1,-0.91,0.0,0.0,0.0
1752780812151,228.0,-4.0,-10.0,-1.0,2.0,9.0,0.1,0.0,-0.2,-0.4,-0.0,-0.1,-0.91,0.0,0.0,0.0
1752780812289,228.0,-4.0,-10.0,-1.0,2.0,9.0,0.0,-0.0,-0.2,-0.4,-0.0,-0.1,-0.91,0.0,0.0,0.0
1752780812540,228.0,-4.0,-10.0,-1.0,2.0,9.0,0.0,0.0,-0.2,-0.4,-0.0,-0.1,-0.91,0.0,0.0,0.0
1752780812570,228.0,-4.0,-10.0,-1.0,2.0,9.0,0.0,0.0,-0.2,-0.4,-0.0,-0.09,-0.91,0.0,0.0,0.0
1752780812724,230.0,-3.0,-8.0,-0.0,1.0,10.0,0.2,-0.2,-0.1,-0.4,-0.0,-0.09,-0.91,0.0,0.0,0.0
1752780812758,232.0,-3.0,-5.0,-0.0,1.0,10.0,0.1,-0.1,-0.1,-0.43,0.0,-0.05,-0.9,0.0,0.0,0.0
1752780812827,234.0,-2.0,-3.0,-0.0,0.0,10.0,0.2,-0.1,-0.2,-0.45,0.01,-0.04,-0.89,0.0,0.0,0.0
1752780812954,236.0,-2.0,-0.0,-0.0,0.0,10.0,0.1,-0.0,-0.3,-0.47,0.01,-0.02,-0.88,0.0,0.0,0.0
1752780813100,235.0,-3.0,1.0,-0.0,-0.0,10.0,0.0,0.0,-0.3,-0.47,0.02,-0.01,-0.88,0.0,0.0,0.0
1752780813152,235.0,-3.0,1.0,-0.0,0.0,10.0,0.1,-0.0,-0.2,-0.46,0.02,-0.01,-0.89,0.0,0.0,0.0
1752780813202,235.0,-3.0,1.0,-0.0,-0.0,9.0,0.0,0.1,-0.2,-0.47,0.02,-0.01,-0.88,0.0,0.0,0.0
1752780813252,236.0,-3.0,1.0,-0.0,-0.0,10.0,0.1,-0.0,-0.3,-0.47,0.03,-0.0,-0.88,0.0,0.0,0.0
1752780813297,236.0,-3.0,1.0,-0.0,-0.0,10.0,0.1,0.0,-0.2,-0.47,0.03,-0.0,-0.88,0.0,0.0,0.0
1752780813444,236.0,-3.0,1.0,-0.0,-0.0,10.0,0.1,0.0,-0.2,-0.47,0.03,-0.0,-0.88,0.0,0.0,0.0
1752780813589,236.0,-3.0,2.0,-0.0,-0.0,10.0,0.0,0.1,-0.1,-0.47,0.03,-0.0,-0.88,0.0,0.0,0.0
1752780813631,236.0,-3.0,3.0,-0.0,-1.0,10.0,0.1,-0.1,-0.3,-0.47,0.03,0.01,-0.88,0.0,0.0,0.0
1752780813666,237.0,-3.0,4.0,-0.0,-1.0,10.0,0.3,-0.1,-0.2,-0.48,0.03,0.01,-0.88,0.0,0.0,0.0
1752780813711,239.0,-2.0,5.0,-1.0,-0.0,10.0,-0.4,0.6,-0.0,-0.49,0.03,0.02,-0.87,0.0,0.0,0.0
1752780813748,241.0,-1.0,6.0,0.0,-1.0,10.0,0.1,0.1,0.0,-0.51,0.03,0.04,-0.86,0.0,0.0,0.0
1752780813795,243.0,1.0,8.0,1.0,-1.0,9.0,0.4,0.5,-0.3,-0.52,0.03,0.06,-0.85,0.0,0.0,0.0
1752780813830,245.0,0.0,10.0,0.0,-2.0,9.0,-0.1,-0.2,-0.1,-0.53,0.04,0.08,-0.84,0.0,0.0,0.0
1752780813965,246.0,0.0,11.0,0.0,-2.0,9.0,-0.3,0.1,-0.0,-0.54,0.05,0.08,-0.83,0.0,0.0,0.0
1752780814015,249.0,1.0,14.0,-0.0,-2.0,9.0,0.0,0.5,-0.6,-0.56,0.06,0.1,-0.82,0.0,0.0,0.0
1752780814467,259.0,-2.0,9.0,-0.0,-2.0,9.0,0.1,-0.1,-0.3,-0.63,0.06,0.05,-0.77,0.0,0.0,0.0
1752780814514,260.0,-2.0,8.0,-0.0,-1.0,9.0,0.0,0.1,-0.2,-0.64,0.06,0.04,-0.76,0.0,0.0,0.0
1752780814664,266.0,-2.0,8.0,-0.0,-2.0,10.0,-0.2,0.4,0.2,-0.65,0.06,0.04,-0.76,0.0,0.0,0.0
1752780814701,267.0,-2.0,7.0,-1.0,-1.0,10.0,-0.1,0.1,-0.0,-0.69,0.06,0.03,-0.72,0.0,0.0,0.0
1752780814748,269.0,-3.0,7.0,-0.0,-1.0,9.0,-0.2,0.3,-0.4,-0.7,0.06,0.03,-0.71,0.0,0.0,0.0
1752780814782,271.0,-3.0,6.0,-0.0,-1.0,10.0,0.2,0.1,-0.2,-0.71,0.05,0.02,-0.7,0.0,0.0,0.0
1752780814819,272.0,-3.0,6.0,-0.0,-1.0,9.0,0.2,0.4,-0.4,-0.71,0.05,0.02,-0.7,0.0,0.0,0.0
1752780814860,273.0,-3.0,5.0,0.0,-0.0,10.0,0.5,0.5,-0.2,-0.72,0.05,0.02,-0.69,0.0,0.0,0.0
1752780814901,274.0,-3.0,5.0,-0.0,-1.0,10.0,0.1,-0.0,-0.1,-0.73,0.05,0.01,-0.68,0.0,0.0,0.0
1752780814940,274.0,-3.0,4.0,-1.0,0.0,9.0,-0.1,0.3,-0.3,-0.73,0.04,0.0,-0.68,0.0,0.0,0.0
1752780814976,275.0,-4.0,3.0,-0.0,-0.0,10.0,0.5,-0.1,-0.1,-0.74,0.04,-0.01,-0.67,0.0,0.0,0.0
1752780815019,276.0,-4.0,2.0,-1.0,0.0,9.0,-0.3,0.3,-0.6,-0.74,0.04,-0.01,-0.67,0.0,0.0,0.0
1752780815060,276.0,-4.0,1.0,-1.0,-0.0,10.0,0.1,0.1,-0.2,-0.74,0.03,-0.02,-0.67,0.0,0.0,0.0
1752780815212,276.0,-5.0,1.0,-1.0,-0.0,10.0,0.1,-0.0,-0.2,-0.75,0.03,-0.02,-0.66,0.0,0.0,0.0
1752780815262,276.0,-5.0,1.0,-1.0,0.0,10.0,0.3,0.1,-0.2,-0.74,0.03,-0.03,-0.67,0.0,0.0,0.0
1752780815422,272.0,-5.0,3.0,-1.0,-0.0,10.0,0.4,0.6,-0.0,-0.74,0.03,-0.03,-0.67,0.0,0.0,0.0
1752780815770,266.0,-6.0,4.0,-1.0,-0.0,9.0,-0.0,0.4,-0.3,-0.68,0.06,-0.01,-0.73,0.0,0.0,0.0
1752780815907,265.0,-6.0,4.0,-1.0,-0.0,9.0,0.1,0.0,-0.2,-0.68,0.06,-0.01,-0.73,0.0,0.0,0.0
1752780816154,265.0,-6.0,4.0,-1.0,-1.0,10.0,0.2,-0.1,-0.2,-0.68,0.06,-0.01,-0.74,0.0,0.0,0.0
1752780816307,265.0,-6.0,4.0,-1.0,-1.0,10.0,0.2,-0.1,-0.2,-0.68,0.06,-0.01,-0.74,0.0,0.0,0.0
1752780816348,265.0,-6.0,4.0,-1.0,-0.0,10.0,0.2,0.4,-0.2,-0.67,0.06,-0.01,-0.74,0.0,0.0,0.0
1752780816381,265.0,-7.0,4.0,-1.0,-1.0,10.0,0.2,0.0,-0.1,-0.67,0.06,-0.01,-0.74,0.0,0.0,0.0
1752780816525,264.0,-7.0,4.0,-1.0,-1.0,9.0,0.1,0.1,-0.2,-0.67,0.06,-0.01,-0.74,0.0,0.0,0.0
1752780816572,264.0,-7.0,3.0,-1.0,-1.0,10.0,0.1,0.1,-0.2,-0.67,0.06,-0.02,-0.74,0.0,0.0,0.0
1752780816617,264.0,-7.0,3.0,-1.0,-1.0,10.0,0.0,0.0,-0.2,-0.67,0.06,-0.02,-0.74,0.0,0.0,0.0
1752780816661,264.0,-7.0,3.0,-1.0,-1.0,10.0,0.0,0.1,-0.2,-0.67,0.06,-0.02,-0.74,0.0,0.0,0.0
1752780816708,264.0,-7.0,3.0,-1.0,-0.0,10.0,0.0,0.1,-0.1,-0.67,0.06,-0.02,-0.74,0.0,0.0,0.0
1752780817056,263.0,-7.0,3.0,-1.0,-0.0,10.0,0.1,-0.0,-0.2,-0.67,0.06,-0.02,-0.74,0.0,0.0,0.0
1752780817105,263.0,-7.0,3.0,-1.0,-0.0,10.0,0.1,0.1,-0.2,-0.66,0.06,-0.02,-0.75,0.0,0.0,0.0
1752780817157,263.0,-7.0,3.0,-1.0,-1.0,10.0,0.1,-0.1,-0.2,-0.66,0.06,-0.02,-0.75,0.0,0.0,0.0
1752780817297,263.0,-7.0,3.0,-1.0,-0.0,9.0,0.2,0.1,-0.2,-0.66,0.06,-0.02,-0.75,0.0,0.0,0.0
1752780817333,263.0,-7.0,2.0,-1.0,-0.0,10.0,0.1,0.0,-0.2,-0.66,0.06,-0.03,-0.75,0.0,0.0,0.0
1752780817388,263.0,-7.0,2.0,-1.0,-0.0,10.0,0.0,0.0,-0.2,-0.66,0.06,-0.03,-0.75,0.0,0.0,0.0
1752780817624,263.0,-7.0,2.0,-1.0,-0.0,10.0,-0.0,0.0,-0.2,-0.66,0.06,-0.03,-0.75,0.0,0.0,0.0
1752780817658,263.0,-7.0,2.0,-1.0,-0.0,10.0,0.1,-0.0,-0.1,-0.66,0.06,-0.03,-0.75,0.0,0.0,0.0
1752780817699,263.0,-7.0,2.0,-1.0,-0.0,10.0,0.1,0.1,-0.1,-0.66,0.06,-0.03,-0.75,0.0,0.0,0.0
1752780817733,263.0,-7.0,2.0,-1.0,-0.0,10.0,0.1,0.0,-0.2,-0.66,0.06,-0.03,-0.75,0.0,0.0,0.0
1752780817775,263.0,-7.0,2.0,-1.0,-0.0,10.0,0.1,0.0,-0.2,-0.66,0.06,-0.03,-0.75,0.0,0.0,0.0
1752780817825,263.0,-7.0,2.0,-1.0,-0.0,10.0,0.1,0.1,-0.1,-0.66,0.06,-0.03,-0.75,0.0,0.0,0.0
1752780817875,263.0,-7.0,2.0,-1.0,-0.0,10.0,0.0,0.1,-0.2,-0.66,0.06,-0.03,-0.75,0.0,0.0,0.0
1752780817908,263.0,-8.0,1.0,-1.0,-0.0,10.0,0.1,-0.1,-0.2,-0.66,0.06,-0.03,-0.75,0.0,0.0,0.0
1752780817954,263.0,-8.0,1.0,-1.0,-0.0,10.0,0.1,-0.1,-0.1,-0.66,0.06,-0.04,-0.75,0.0,0.0,0.0
1752780817989,263.0,-8.0,1.0,-1.0,-0.0,10.0,0.1,-0.0,-0.2,-0.66,0.06,-0.04,-0.74,0.0,0.0,0.0
1752780818041,263.0,-8.0,0.0,-1.0,-0.0,9.0,0.1,0.0,-0.2,-0.66,0.06,-0.04,-0.74,0.0,0.0,0.0
1752780818175,263.0,-8.0,0.0,-1.0,0.0,10.0,0.2,-0.0,-0.2,-0.66,0.05,-0.04,-0.74,0.0,0.0,0.0
1752780818222,263.0,-9.0,-4.0,-2.0,1.0,10.0,0.0,-0.1,0.0,-0.66,0.04,-0.07,-0.75,0.0,0.0,0.0
1752780818258,262.0,-9.0,-5.0,-2.0,1.0,9.0,0.0,0.1,-0.2,-0.66,0.03,-0.09,-0.75,0.0,0.0,0.0
1752780818309,262.0,-10.0,-6.0,-1.0,1.0,9.0,0.1,0.2,-0.2,-0.65,0.03,-0.1,-0.75,0.0,0.0,0.0
1752780818359,262.0,-10.0,-7.0,-2.0,1.0,10.0,-0.0,0.0,-0.1,-0.65,0.03,-0.1,-0.75,0.0,0.0,0.0
1752780818409,261.0,-10.0,-8.0,-2.0,1.0,9.0,0.1,0.0,-0.1,-0.65,0.03,-0.11,-0.75,0.0,0.0,0.0
1752780818459,261.0,-11.0,-8.0,-2.0,1.0,9.0,0.1,-0.0,-0.2,-0.64,0.03,-0.12,-0.76,0.0,0.0,0.0
1752780818591,260.0,-12.0,-9.0,-2.0,1.0,9.0,0.0,-0.0,-0.0,-0.64,0.03,-0.12,-0.76,0.0,0.0,0.0
1752780818729,260.0,-12.0,-9.0,-2.0,2.0,9.0,0.1,0.0,-0.1,-0.64,0.03,-0.12,-0.76,0.0,0.0,0.0
1752780818788,260.0,-12.0,-10.0,-2.0,2.0,9.0,0.1,0.1,-0.1,-0.63,0.03,-0.13,-0.76,0.0,0.0,0.0
1752780819035,259.0,-12.0,-11.0,-3.0,3.0,9.0,0.0,0.0,-0.0,-0.63,0.02,-0.14,-0.76,0.0,0.0,0.0
1752780819383,252.0,-17.0,-24.0,-3.0,4.0,9.0,-0.1,-0.2,-0.1,-0.57,0.0,-0.25,-0.78,0.0,0.0,0.0
1752780819526,253.0,-15.0,-17.0,-3.0,2.0,9.0,-0.1,-0.2,0.1,-0.58,0.01,-0.2,-0.79,0.0,0.0,0.0
1752780819577,254.0,-13.0,-13.0,-2.0,1.0,10.0,0.0,-0.3,0.1,-0.59,0.03,-0.16,-0.79,0.0,0.0,0.0
1752780819610,254.0,-12.0,-9.0,-2.0,2.0,9.0,0.4,-0.4,0.3,-0.6,0.04,-0.12,-0.79,0.0,0.0,0.0
1752780819644,254.0,-10.0,-5.0,-2.0,1.0,10.0,0.1,-0.1,-0.1,-0.6,0.04,-0.1,-0.79,0.0,0.0,0.0
1752780819685,255.0,-9.0,-3.0,-2.0,-0.0,10.0,-0.0,-0.4,-0.1,-0.6,0.05,-0.07,-0.79,0.0,0.0,0.0
1752780819728,255.0,-8.0,-1.0,-1.0,-1.0,10.0,-0.0,-0.6,0.2,-0.61,0.05,-0.05,-0.79,0.0,0.0,0.0
1752780819762,255.0,-7.0,0.0,-1.0,0.0,9.0,-0.2,0.2,-0.6,-0.61,0.05,-0.04,-0.79,0.0,0.0,0.0
1752780819803,256.0,-6.0,2.0,-1.0,-0.0,9.0,-0.1,-0.0,-0.2,-0.61,0.05,-0.02,-0.79,0.0,0.0,0.0
1752780819846,256.0,-4.0,3.0,-1.0,-1.0,9.0,0.1,-0.1,-0.3,-0.62,0.05,-0.0,-0.79,0.0,0.0,0.0
1752780819881,257.0,-3.0,5.0,-0.0,-1.0,10.0,0.2,0.0,-0.1,-0.62,0.05,0.01,-0.78,0.0,0.0,0.0
1752780819922,258.0,-2.0,6.0,-0.0,-1.0,9.0,0.1,-0.0,-0.3,-0.63,0.05,0.02,-0.78,0.0,0.0,0.0
1752780820170,258.0,2.0,11.0,0.0,-2.0,9.0,0.1,0.3,-0.2,-0.63,0.05,0.03,-0.78,0.0,0.0,0.0
1752780820221,258.0,3.0,12.0,1.0,-2.0,9.0,0.1,-0.0,-0.2,-0.62,0.04,0.1,-0.77,0.0,0.0,0.0
1752780820272,258.0,4.0,13.0,1.0,-2.0,9.0,-0.0,0.2,-0.6,-0.62,0.04,0.11,-0.77,0.0,0.0,0.0
1752780820314,258.0,6.0,14.0,1.0,-2.0,9.0,-0.1,0.1,-0.2,-0.63,0.04,0.13,-0.77,0.0,0.0,0.0
1752780820358,259.0,7.0,15.0,1.0,-2.0,9.0,0.1,0.2,-0.4,-0.63,0.03,0.13,-0.77,0.0,0.0,0.0
1752780820614,260.0,8.0,16.0,2.0,-3.0,9.0,0.2,0.1,-0.1,-0.63,0.03,0.14,-0.76,0.0,0.0,0.0
1752780820760,259.0,10.0,22.0,1.0,-3.0,9.0,-0.1,0.4,-0.3,-0.63,0.04,0.17,-0.76,0.0,0.0,0.0
1752780820821,259.0,10.0,23.0,2.0,-4.0,8.0,-0.0,0.1,-0.4,-0.62,0.05,0.21,-0.75,0.0,0.0,0.0
1752780820945,258.0,12.0,11.0,2.0,-2.0,9.0,-0.0,0.1,0.0,-0.62,0.04,0.21,-0.75,0.0,0.0,0.0
1752780820984,257.0,12.0,9.0,3.0,-1.0,9.0,0.4,0.0,-0.3,-0.62,-0.04,0.13,-0.77,0.0,0.0,0.0
1752780821033,257.0,13.0,8.0,3.0,-1.0,9.0,0.3,-0.2,-0.3,-0.61,-0.05,0.12,-0.78,0.0,0.0,0.0
1752780821075,256.0,14.0,7.0,2.0,-1.0,9.0,-0.2,0.1,-0.3,-0.61,-0.06,0.12,-0.78,0.0,0.0,0.0
1752780821106,255.0,16.0,5.0,3.0,-1.0,9.0,0.3,0.2,-0.4,-0.6,-0.08,0.12,-0.78,0.0,0.0,0.0
1752780821143,254.0,17.0,3.0,3.0,-1.0,9.0,-0.1,0.0,-0.5,-0.6,-0.1,0.11,-0.79,0.0,0.0,0.0
1752780821185,253.0,19.0,1.0,3.0,0.0,9.0,-0.3,0.3,-0.5,-0.59,-0.12,0.11,-0.79,0.0,0.0,0.0
1752780821229,253.0,20.0,0.0,3.0,-0.0,9.0,-0.3,-0.3,-0.3,-0.58,-0.14,0.11,-0.79,0.0,0.0,0.0
1752780821479,252.0,22.0,-9.0,3.0,2.0,9.0,-0.1,0.0,-0.3,-0.58,-0.19,0.05,-0.79,0.0,0.0,0.0
1752780821516,252.0,21.0,-10.0,4.0,2.0,9.0,0.0,-0.0,-0.4,-0.58,-0.2,0.04,-0.79,0.0,0.0,0.0
1752780821865,253.0,21.0,-13.0,4.0,2.0,9.0,2.4,0.8,-0.7,-0.58,-0.2,0.04,-0.79,0.0,0.0,0.0
1752780821918,251.0,18.0,-12.0,3.0,2.0,9.0,0.1,0.3,-0.6,-0.57,-0.19,0.01,-0.8,0.0,0.0,0.0
1752780821949,251.0,18.0,-12.0,3.0,2.0,9.0,-0.2,-0.0,-0.1,-0.57,-0.19,0.01,-0.8,0.0,0.0,0.0
1752780821985,251.0,17.0,-12.0,3.0,3.0,9.0,0.5,0.5,-0.5,-0.57,-0.19,0.0,-0.8,0.0,0.0,0.0
1752780822035,250.0,15.0,-12.0,4.0,2.0,9.0,1.4,-0.1,-0.3,-0.56,-0.17,-0.01,-0.81,0.0,0.0,0.0
1752780822068,249.0,13.0,-12.0,1.0,2.0,9.0,-0.7,0.1,-0.2,-0.56,-0.15,-0.02,-0.81,0.0,0.0,0.0
1752780822110,249.0,11.0,-13.0,1.0,2.0,9.0,-0.6,-0.3,0.0,-0.56,-0.14,-0.04,-0.82,0.0,0.0,0.0
1752780822243,247.0,-3.0,-17.0,-0.0,3.0,10.0,0.1,-0.5,-0.1,-0.54,-0.06,-0.13,-0.83,0.0,0.0,0.0
1752780822283,245.0,-6.0,-18.0,-0.0,3.0,9.0,0.6,-0.6,0.8,-0.53,-0.04,-0.17,-0.83,0.0,0.0,0.0
1752780822336,244.0,-9.0,-21.0,-2.0,4.0,9.0,-0.3,0.2,-0.3,-0.52,-0.03,-0.19,-0.83,0.0,0.0,0.0
1752780822369,243.0,-10.0,-20.0,-2.0,3.0,9.0,-0.2,-0.4,-0.0,-0.52,-0.01,-0.19,-0.83,0.0,0.0,0.0
1752780822410,243.0,-12.0,-19.0,-2.0,3.0,9.0,0.4,-0.3,0.3,-0.51,0.0,-0.2,-0.84,0.0,0.0,0.0
1752780822449,243.0,-12.0,-19.0,-2.0,3.0,9.0,0.0,-0.1,0.0,-0.51,0.01,-0.19,-0.84,0.0,0.0,0.0
1752780822487,242.0,-13.0,-17.0,-3.0,2.0,9.0,-0.3,-0.3,0.1,-0.51,0.02,-0.18,-0.84,0.0,0.0,0.0
1752780822527,241.0,-14.0,-15.0,-2.0,2.0,9.0,-0.0,-0.4,-0.1,-0.5,0.03,-0.17,-0.85,0.0,0.0,0.0
1752780822671,237.0,-16.0,-12.0,-3.0,1.0,9.0,-0.1,-0.5,-0.1,-0.49,0.05,-0.17,-0.85,0.0,0.0,0.0
1752780822721,236.0,-17.0,-10.0,-3.0,1.0,9.0,-0.1,-0.3,-0.2,-0.46,0.09,-0.15,-0.87,0.0,0.0,0.0
1752780822752,235.0,-19.0,-9.0,-3.0,1.0,9.0,-0.2,-0.6,0.2,-0.46,0.11,-0.14,-0.87,0.0,0.0,0.0
1752780822792,235.0,-20.0,-8.0,-3.0,1.0,10.0,-0.0,-0.5,0.4,-0.45,0.12,-0.14,-0.87,0.0,0.0,0.0
1752780822834,234.0,-20.0,-8.0,-4.0,0.0,10.0,-0.5,-1.1,0.8,-0.45,0.13,-0.14,-0.87,0.0,0.0,0.0
1752780822978,233.0,-31.0,-3.0,-6.0,-0.0,9.0,-0.7,-0.8,0.2,-0.43,0.22,-0.13,-0.86,0.0,0.0,0.0
1752780823019,232.0,-33.0,-5.0,-6.0,1.0,8.0,-0.4,0.3,-0.3,-0.42,0.24,-0.16,-0.86,0.0,0.0,0.0
1752780823057,229.0,-36.0,-4.0,-6.0,1.0,7.0,0.3,0.7,-1.2,-0.4,0.26,-0.16,-0.86,0.0,0.0,0.0
1752780823094,227.0,-36.0,-2.0,-5.0,0.0,7.0,0.3,0.1,-0.6,-0.38,0.28,-0.14,-0.87,0.0,0.0,0.0
1752780823138,225.0,-37.0,-3.0,-6.0,1.0,7.0,0.5,0.1,-0.8,-0.36,0.28,-0.14,-0.88,0.0,0.0,0.0
1752780823178,224.0,-38.0,-6.0,-6.0,1.0,7.0,0.5,0.2,-0.8,-0.35,0.28,-0.16,-0.88,0.0,0.0,0.0
1752780823222,223.0,-39.0,-6.0,-7.0,1.0,7.0,-0.3,0.3,-0.6,-0.35,0.29,-0.16,-0.88,0.0,0.0,0.0
1752780823267,224.0,-40.0,-6.0,-6.0,0.0,8.0,0.1,-0.8,1.0,-0.35,0.3,-0.17,-0.87,0.0,0.0,0.0
1752780823296,227.0,-40.0,-8.0,-7.0,1.0,7.0,-0.1,0.0,-0.3,-0.38,0.29,-0.19,-0.86,0.0,0.0,0.0
1752780823340,228.0,-41.0,-9.0,-5.0,2.0,6.0,1.3,0.4,-1.0,-0.38,0.29,-0.2,-0.85,0.0,0.0,0.0
1752780823580,229.0,-38.0,-8.0,-6.0,1.0,8.0,-0.3,-0.2,0.2,-0.39,0.27,-0.19,-0.86,0.0,0.0,0.0
1752780823625,230.0,-35.0,-7.0,-6.0,2.0,8.0,-0.2,0.7,-0.3,-0.4,0.25,-0.18,-0.86,0.0,0.0,0.0
1752780823668,230.0,-35.0,-7.0,-6.0,0.0,8.0,-0.6,-0.3,-0.1,-0.4,0.25,-0.17,-0.86,0.0,0.0,0.0
1752780823701,230.0,-33.0,-5.0,-6.0,1.0,8.0,-0.6,-0.1,-0.2,-0.41,0.24,-0.15,-0.87,0.0,0.0,0.0
1752780823747,230.0,-31.0,-4.0,-5.0,0.0,8.0,0.7,-0.3,0.1,-0.4,0.23,-0.14,-0.87,0.0,0.0,0.0
1752780823786,230.0,-28.0,-5.0,-5.0,1.0,9.0,0.1,0.1,0.0,-0.41,0.21,-0.14,-0.88,0.0,0.0,0.0
1752780823933,231.0,-21.0,-2.0,-4.0,-0.0,10.0,-0.8,0.0,-0.1,-0.41,0.2,-0.12,-0.88,0.0,0.0,0.0
1752780824086,234.0,-14.0,-1.0,-3.0,-0.0,9.0,-0.3,-0.6,-0.4,-0.45,0.11,-0.07,-0.88,0.0,0.0,0.0
1752780824118,236.0,-11.0,-1.0,-2.0,-1.0,8.0,0.1,-0.3,-1.3,-0.47,0.08,-0.05,-0.88,0.0,0.0,0.0
1752780824150,237.0,-4.0,1.0,-0.0,-0.0,10.0,-0.0,0.0,0.2,-0.48,0.04,-0.01,-0.88,0.0,0.0,0.0
1752780824187,237.0,2.0,2.0,1.0,-0.0,10.0,0.0,-0.1,0.2,-0.48,-0.01,0.02,-0.88,0.0,0.0,0.0
1752780824236,236.0,7.0,1.0,1.0,0.0,9.0,0.2,0.3,-0.3,-0.47,-0.04,0.04,-0.88,0.0,0.0,0.0
1752780824286,235.0,7.0,-0.0,1.0,0.0,10.0,-0.1,0.1,-0.0,-0.46,-0.06,0.03,-0.89,0.0,0.0,0.0
1752780824318,235.0,7.0,-1.0,1.0,-0.0,9.0,-0.3,-0.5,-0.5,-0.46,-0.06,0.02,-0.89,0.0,0.0,0.0
1752780824350,235.0,7.0,-2.0,1.0,1.0,10.0,-0.1,0.2,-0.1,-0.46,-0.06,0.02,-0.88,0.0,0.0,0.0
1752780824400,234.0,7.0,-3.0,1.0,1.0,9.0,0.0,0.8,-1.1,-0.46,-0.06,0.01,-0.89,0.0,0.0,0.0
1752780824436,233.0,7.0,-2.0,1.0,0.0,10.0,-0.4,-0.3,0.3,-0.45,-0.06,0.01,-0.89,0.0,0.0,0.0
1752780824484,233.0,8.0,-2.0,1.0,0.0,9.0,-0.3,-0.2,-0.3,-0.45,-0.07,0.01,-0.89,0.0,0.0,0.0
1752780824528,233.0,8.0,-3.0,1.0,1.0,9.0,-0.2,0.0,-0.2,-0.45,-0.08,0.01,-0.89,0.0,0.0,0.0
1752780824570,233.0,8.0,-4.0,1.0,1.0,9.0,-0.3,-0.1,-0.3,-0.45,-0.08,0.0,-0.89,0.0,0.0,0.0
1752780824704,233.0,8.0,-5.0,1.0,1.0,9.0,-0.4,-0.3,-0.2,-0.44,-0.08,-0.01,-0.89,0.0,0.0,0.0
1752780824755,232.0,6.0,-9.0,1.0,1.0,10.0,-0.3,-0.2,-0.0,-0.43,-0.08,-0.05,-0.9,0.0,0.0,0.0
1752780824791,232.0,4.0,-11.0,0.0,2.0,9.0,-0.4,-0.2,-0.1,-0.43,-0.08,-0.06,-0.9,0.0,0.0,0.0
1752780824934,231.0,-6.0,-15.0,-2.0,3.0,10.0,-0.6,0.1,0.3,-0.43,-0.01,-0.14,-0.89,0.0,0.0,0.0
1752780824974,231.0,-10.0,-17.0,-3.0,3.0,9.0,-0.3,-0.3,0.0,-0.43,0.02,-0.17,-0.89,0.0,0.0,0.0
1752780825018,232.0,-18.0,-19.0,-4.0,3.0,9.0,-0.1,-0.2,-0.7,-0.43,0.07,-0.2,-0.88,0.0,0.0,0.0
1752780825053,233.0,-23.0,-21.0,-4.0,3.0,8.0,-0.1,-0.5,-0.3,-0.43,0.1,-0.24,-0.87,0.0,0.0,0.0
1752780825093,233.0,-26.0,-22.0,-5.0,3.0,8.0,-0.3,-0.0,-0.1,-0.43,0.12,-0.26,-0.86,0.0,0.0,0.0
1752780825140,234.0,-28.0,-22.0,-5.0,3.0,8.0,-0.1,-0.3,-0.2,-0.43,0.13,-0.27,-0.85,0.0,0.0,0.0
1752780825183,236.0,-32.0,-22.0,-5.0,3.0,8.0,-0.1,-0.4,-0.1,-0.44,0.16,-0.28,-0.84,0.0,0.0,0.0
1752780825225,236.0,-34.0,-22.0,-6.0,3.0,7.0,-0.3,-0.3,-0.1,-0.44,0.18,-0.28,-0.83,0.0,0.0,0.0
1752780825269,238.0,-36.0,-22.0,-6.0,3.0,7.0,-0.1,-0.1,-0.3,-0.45,0.19,-0.29,-0.82,0.0,0.0,0.0
1752780825419,241.0,-38.0,-17.0,-5.0,2.0,7.0,-0.0,-0.1,-0.4,-0.48,0.22,-0.27,-0.81,0.0,0.0,0.0
1752780825458,243.0,-33.0,-14.0,-5.0,1.0,8.0,-0.8,-0.5,-0.1,-0.5,0.18,-0.24,-0.81,0.0,0.0,0.0
1752780825493,244.0,-23.0,-11.0,-4.0,2.0,9.0,-0.5,0.2,0.4,-0.52,0.13,-0.2,-0.82,0.0,0.0,0.0
1752780825536,245.0,-15.0,-9.0,-3.0,2.0,10.0,-0.2,0.3,0.3,-0.53,0.08,-0.15,-0.83,0.0,0.0,0.0
1752780825580,245.0,-12.0,-8.0,-2.0,1.0,10.0,-0.3,-0.1,0.2,-0.53,0.05,-0.11,-0.84,0.0,0.0,0.0
1752780825615,245.0,-10.0,-7.0,-2.0,1.0,10.0,-0.1,-0.3,0.8,-0.54,0.04,-0.1,-0.84,0.0,0.0,0.0
1752780825656,245.0,-13.0,-8.0,-3.0,1.0,11.0,-0.7,0.3,0.6,-0.53,0.05,-0.12,-0.84,0.0,0.0,0.0
1752780825696,243.0,-22.0,-12.0,-5.0,2.0,7.0,0.0,-0.1,-1.0,-0.51,0.11,-0.19,-0.83,0.0,0.0,0.0
1752780825735,243.0,-34.0,-17.0,-6.0,2.0,7.0,-0.0,-0.5,-0.4,-0.49,0.18,-0.25,-0.81,0.0,0.0,0.0
1752780825785,243.0,-37.0,-18.0,-5.0,2.0,6.0,1.3,-0.3,-0.9,-0.49,0.21,-0.28,-0.8,0.0,0.0,0.0
1752780825819,243.0,-36.0,-17.0,-5.0,3.0,7.0,0.8,-0.1,-1.8,-0.49,0.2,-0.27,-0.8,0.0,0.0,0.0
1752780825853,245.0,-25.0,-12.0,-5.0,1.0,11.0,-1.4,-0.5,0.9,-0.52,0.13,-0.2,-0.82,0.0,0.0,0.0
1752780826001,244.0,-27.0,-14.0,-4.0,2.0,6.0,0.6,-0.4,-1.7,-0.55,0.08,-0.14,-0.82,0.0,0.0,0.0
1752780826138,248.0,-19.0,-9.0,-4.0,1.0,11.0,-0.9,-0.4,1.2,-0.54,0.12,-0.18,-0.81,0.0,0.0,0.0
1752780826178,249.0,-14.0,-7.0,-3.0,1.0,10.0,-0.2,-0.2,0.8,-0.56,0.07,-0.12,-0.82,0.0,0.0,0.0
1752780826221,248.0,-16.0,-8.0,-3.0,2.0,11.0,-0.8,0.8,1.0,-0.55,0.08,-0.13,-0.82,0.0,0.0,0.0
1752780826255,246.0,-27.0,-12.0,-4.0,2.0,7.0,2.4,-0.5,-4.5,-0.53,0.14,-0.21,-0.81,0.0,0.0,0.0
1752780826295,246.0,-27.0,-13.0,-5.0,1.0,9.0,-0.4,-0.9,1.7,-0.53,0.14,-0.21,-0.81,0.0,0.0,0.0
1752780826355,250.0,-14.0,-8.0,-2.0,1.0,10.0,0.0,-0.3,0.9,-0.56,0.07,-0.14,-0.81,0.0,0.0,0.0
1752780826385,250.0,-12.0,-7.0,-2.0,2.0,11.0,-0.0,1.2,1.0,-0.57,0.05,-0.11,-0.81,0.0,0.0,0.0
1752780826534,249.0,-32.0,-18.0,-0.0,0.0,6.0,6.1,-2.4,-1.4,-0.54,0.15,-0.27,-0.78,0.0,0.0,0.0
1752780826569,251.0,-44.0,-20.0,-5.0,9.0,5.0,-2.5,-5.4,2.0,-0.53,0.23,-0.33,-0.74,0.0,0.0,0.0
1752780826605,254.0,-40.0,-21.0,-6.0,2.0,8.0,0.6,-1.3,0.8,-0.56,0.19,-0.33,-0.74,0.0,0.0,0.0
1752780826652,254.0,-39.0,-22.0,-5.0,2.0,7.0,1.9,-0.1,0.1,-0.56,0.18,-0.33,-0.74,0.0,0.0,0.0
1752780826689,253.0,-40.0,-29.0,-3.0,3.0,5.0,3.7,-0.8,-1.8,-0.54,0.17,-0.36,-0.74,0.0,0.0,0.0
1752780826838,251.0,-39.0,-32.0,-6.0,4.0,7.0,-0.4,-1.7,1.6,-0.53,0.15,-0.38,-0.74,0.0,0.0,0.0
1752780826874,232.0,-34.0,-45.0,-7.0,5.0,7.0,0.3,-0.1,0.5,-0.39,0.14,-0.44,-0.8,0.0,0.0,0.0
1752780826904,225.0,-34.0,-47.0,-3.0,7.0,4.0,1.2,1.4,-2.1,-0.34,0.16,-0.44,-0.82,0.0,0.0,0.0
1752780826944,218.0,-33.0,-51.0,-5.0,7.0,2.0,-0.7,0.5,-3.3,-0.28,0.18,-0.46,-0.82,0.0,0.0,0.0
1752780827091,185.0,-22.0,-77.0,-3.0,9.0,0.0,0.9,-0.2,-1.6,-0.05,0.22,-0.58,-0.78,0.0,0.0,0.0
1752780827132,179.0,-19.0,-79.0,-7.0,12.0,1.0,-4.4,3.0,-1.2,0.0,0.22,-0.6,-0.77,0.0,0.0,0.0
1752780827168,178.0,-17.0,-78.0,-3.0,10.0,0.0,-1.7,-0.6,0.1,0.01,0.2,-0.6,-0.77,0.0,0.0,0.0
1752780827218,174.0,-16.0,-80.0,-1.0,8.0,1.0,0.3,0.9,-0.6,0.04,0.21,-0.61,-0.76,0.0,0.0,0.0
1752780827248,172.0,-16.0,-79.0,-4.0,10.0,2.0,-1.4,1.1,0.7,0.06,0.22,-0.6,-0.77,0.0,0.0,0.0
1752780827298,169.0,-16.0,-80.0,-2.0,9.0,1.0,0.2,-0.1,-0.3,0.07,0.23,-0.59,-0.77,0.0,0.0,0.0
1752780827334,163.0,-12.0,-93.0,1.0,2.0,-3.0,2.2,-7.9,-2.1,0.1,0.25,-0.68,-0.68,0.0,0.0,0.0
1752780827368,146.0,-2.0,-101.0,8.0,10.0,-21.0,1.6,-16.0,-2.1,0.19,0.26,-0.73,-0.61,0.0,0.0,0.0
1752780827415,141.0,-1.0,-104.0,-1.0,10.0,-4.0,-1.5,3.2,-0.4,0.2,0.28,-0.74,-0.58,0.0,0.0,0.0
1752780827451,143.0,-3.0,-106.0,-1.0,11.0,-3.0,0.1,-1.5,-0.3,0.19,0.29,-0.74,-0.57,0.0,0.0,0.0
1752780827501,151.0,-8.0,-103.0,-2.0,9.0,-1.0,-1.0,-0.3,0.8,0.16,0.3,-0.72,-0.61,0.0,0.0,0.0
1752780827534,151.0,-7.0,-103.0,-2.0,10.0,-2.0,-0.6,0.2,-0.0,0.15,0.28,-0.73,-0.61,0.0,0.0,0.0
1752780827581,153.0,-7.0,-103.0,-2.0,9.0,-1.0,-1.0,0.1,1.2,0.15,0.28,-0.73,-0.61,0.0,0.0,0.0
