timestamp,heading,roll,pitch,acc_x,acc_y,acc_z,lin_acc_x,lin_acc_y,lin_acc_z,quat_w,quat_x,quat_y,quat_z,mag_x,mag_y,mag_z
1752855095958,342.0,68.0,-68.0,9.0,3.0,1.0,0.0,-0.1,-0.1,0.75,0.32,-0.57,0.12,0.0,0.0,0.0
1752855095958,342.0,68.0,-68.0,9.0,3.0,1.0,0.1,-0.1,-0.0,0.75,0.32,-0.57,0.12,0.0,0.0,0.0
1752855095967,342.0,68.0,-68.0,9.0,3.0,1.0,0.1,-0.0,-0.1,0.75,0.32,-0.57,0.11,0.0,0.0,0.0
1752855096005,342.0,68.0,-68.0,9.0,3.0,1.0,0.1,-0.1,0.0,0.75,0.32,-0.57,0.11,0.0,0.0,0.0
1752855096047,342.0,68.0,-68.0,9.0,3.0,1.0,0.1,-0.0,-0.1,0.75,0.32,-0.57,0.11,0.0,0.0,0.0
1752855096083,342.0,68.0,-68.0,9.0,3.0,1.0,0.1,-0.0,-0.1,0.75,0.32,-0.57,0.11,0.0,0.0,0.0
1752855096239,342.0,68.0,-68.0,9.0,3.0,1.0,0.1,-0.0,-0.0,0.75,0.32,-0.57,0.11,0.0,0.0,0.0
1752855096473,342.0,68.0,-68.0,9.0,3.0,1.0,0.1,-0.0,-0.0,0.75,0.32,-0.57,0.11,0.0,0.0,0.0
1752855096506,343.0,68.0,-68.0,9.0,3.0,1.0,0.1,-0.1,-0.1,0.75,0.32,-0.57,0.11,0.0,0.0,0.0
1752855096556,343.0,68.0,-68.0,9.0,3.0,1.0,0.0,-0.1,-0.0,0.75,0.32,-0.57,0.11,0.0,0.0,0.0
1752855096589,343.0,68.0,-68.0,9.0,3.0,1.0,0.1,-0.0,-0.1,0.75,0.32,-0.57,0.11,0.0,0.0,0.0
1752855096740,343.0,68.0,-68.0,9.0,3.0,1.0,0.1,-0.1,0.0,0.75,0.32,-0.57,0.11,0.0,0.0,0.0
1752855096774,343.0,68.0,-68.0,9.0,3.0,2.0,0.0,0.1,0.1,0.75,0.32,-0.57,0.11,0.0,0.0,0.0
1752855096824,343.0,68.0,-68.0,9.0,4.0,2.0,-0.5,0.2,1.0,0.75,0.32,-0.57,0.11,0.0,0.0,0.0
1752855096858,343.0,68.0,-68.0,9.0,4.0,2.0,-0.5,0.6,0.9,0.75,0.32,-0.58,0.11,0.0,0.0,0.0
1752855096907,343.0,69.0,-69.0,9.0,4.0,3.0,0.2,1.2,1.8,0.74,0.32,-0.58,0.11,0.0,0.0,0.0
1752855096941,344.0,69.0,-70.0,10.0,5.0,3.0,0.3,1.2,1.0,0.74,0.31,-0.58,0.1,0.0,0.0,0.0
1752855096991,346.0,69.0,-70.0,9.0,4.0,3.0,0.2,0.8,1.6,0.74,0.3,-0.59,0.09,0.0,0.0,0.0
1752855097025,348.0,70.0,-70.0,9.0,4.0,2.0,0.0,0.8,0.8,0.74,0.28,-0.6,0.08,0.0,0.0,0.0
1752855097058,349.0,71.0,-71.0,9.0,3.0,2.0,-0.3,0.3,0.3,0.74,0.27,-0.61,0.07,0.0,0.0,0.0
1752855097108,351.0,72.0,-73.0,9.0,3.0,1.0,-0.3,0.1,-0.1,0.74,0.25,-0.63,0.06,0.0,0.0,0.0
1752855097143,352.0,73.0,-74.0,9.0,3.0,0.0,-0.3,0.0,-0.4,0.73,0.23,-0.64,0.05,0.0,0.0,0.0
1752855097284,357.0,76.0,-84.0,9.0,2.0,-1.0,-0.2,-0.5,-0.8,0.72,0.19,-0.67,0.02,0.0,0.0,0.0
1752855097327,357.0,77.0,-86.0,9.0,1.0,-1.0,-0.4,-1.0,-0.6,0.71,0.18,-0.68,0.02,0.0,0.0,0.0
1752855097361,358.0,77.0,-89.0,10.0,2.0,-0.0,0.1,-0.5,-0.4,0.71,0.17,-0.69,0.01,0.0,0.0,0.0
1752855097401,360.0,77.0,-93.0,10.0,2.0,-0.0,0.1,-0.4,-0.2,0.7,0.16,-0.69,0.0,0.0,0.0,0.0
1752855097547,3.0,76.0,-103.0,11.0,2.0,-3.0,1.2,-0.3,-2.8,0.69,0.16,-0.71,-0.02,0.0,0.0,0.0
1752855097581,3.0,75.0,-104.0,10.0,2.0,-3.0,0.7,-0.5,-2.7,0.69,0.16,-0.71,-0.02,0.0,0.0,0.0
1752855097622,3.0,75.0,-103.0,10.0,2.0,-3.0,0.8,-0.7,-2.8,0.69,0.16,-0.71,-0.02,0.0,0.0,0.0
1752855097660,2.0,75.0,-105.0,10.0,2.0,-3.0,0.4,-0.3,-2.1,0.68,0.16,-0.71,-0.01,0.0,0.0,0.0
1752855097697,2.0,76.0,-101.0,10.0,2.0,-2.0,0.2,-0.0,-1.2,0.69,0.17,-0.7,-0.01,0.0,0.0,0.0
1752855097740,360.0,76.0,-95.0,10.0,2.0,-1.0,0.0,-0.3,-1.0,0.7,0.17,-0.7,-0.0,0.0,0.0,0.0
1752855097786,358.0,76.0,-90.0,10.0,2.0,-0.0,0.0,-0.1,-0.4,0.71,0.18,-0.68,0.01,0.0,0.0,0.0
1752855097931,357.0,75.0,-83.0,9.0,3.0,1.0,-0.4,0.3,0.2,0.72,0.19,-0.67,0.02,0.0,0.0,0.0
1752855097972,351.0,74.0,-70.0,9.0,3.0,2.0,-0.5,0.5,0.6,0.74,0.23,-0.63,0.06,0.0,0.0,0.0
1752855098013,349.0,73.0,-68.0,9.0,3.0,2.0,-0.1,0.4,0.6,0.74,0.24,-0.62,0.07,0.0,0.0,0.0
1752855098049,347.0,73.0,-67.0,9.0,3.0,2.0,-0.2,0.3,1.2,0.74,0.26,-0.61,0.09,0.0,0.0,0.0
1752855098093,345.0,72.0,-66.0,9.0,3.0,2.0,-0.0,-0.0,0.1,0.74,0.27,-0.61,0.1,0.0,0.0,0.0
1752855098139,344.0,72.0,-65.0,9.0,3.0,2.0,-0.3,0.2,0.5,0.74,0.27,-0.6,0.11,0.0,0.0,0.0
1752855098192,342.0,71.0,-62.0,9.0,3.0,3.0,-0.3,0.3,1.1,0.75,0.28,-0.59,0.11,0.0,0.0,0.0
1752855098230,342.0,70.0,-61.0,9.0,3.0,3.0,-0.5,0.4,1.5,0.75,0.29,-0.58,0.12,0.0,0.0,0.0
1752855098264,341.0,69.0,-60.0,9.0,4.0,3.0,-0.6,0.7,1.6,0.76,0.3,-0.57,0.13,0.0,0.0,0.0
1752855098299,341.0,69.0,-60.0,9.0,4.0,3.0,-0.5,0.7,1.1,0.76,0.3,-0.57,0.13,0.0,0.0,0.0
1752855098349,341.0,69.0,-60.0,9.0,4.0,3.0,-0.3,0.6,0.7,0.76,0.3,-0.56,0.13,0.0,0.0,0.0
1752855098383,340.0,69.0,-61.0,9.0,4.0,2.0,-0.1,0.4,0.5,0.76,0.31,-0.56,0.13,0.0,0.0,0.0
1752855098534,342.0,69.0,-62.0,9.0,4.0,3.0,-0.5,1.0,1.6,0.76,0.31,-0.56,0.13,0.0,0.0,0.0
1752855098681,345.0,72.0,-67.0,9.0,3.0,2.0,-0.4,0.2,0.5,0.74,0.27,-0.6,0.1,0.0,0.0,0.0
1752855098717,347.0,72.0,-70.0,9.0,3.0,1.0,-0.2,0.0,-0.0,0.74,0.26,-0.62,0.08,0.0,0.0,0.0
1752855098754,349.0,73.0,-73.0,9.0,3.0,0.0,-0.3,-0.2,-0.5,0.73,0.25,-0.63,0.07,0.0,0.0,0.0
1752855098801,351.0,73.0,-75.0,9.0,3.0,0.0,0.0,-0.1,-0.6,0.73,0.24,-0.64,0.06,0.0,0.0,0.0
1752855098846,353.0,73.0,-78.0,9.0,3.0,0.0,-0.2,-0.3,-0.1,0.73,0.23,-0.64,0.05,0.0,0.0,0.0
1752855098891,354.0,73.0,-81.0,9.0,2.0,0.0,-0.2,-0.4,0.0,0.72,0.23,-0.65,0.04,0.0,0.0,0.0
1752855099034,2.0,71.0,-86.0,9.0,3.0,-1.0,0.3,-0.1,-0.8,0.72,0.23,-0.65,0.03,0.0,0.0,0.0
1752855099078,4.0,70.0,-89.0,10.0,3.0,-0.0,0.4,-0.2,-0.1,0.71,0.22,-0.67,-0.02,0.0,0.0,0.0
1752855099638,15.0,66.0,-99.0,9.0,4.0,-1.0,0.2,-0.3,-0.5,0.7,0.22,-0.68,-0.03,0.0,0.0,0.0
1752855099669,6.0,70.0,-98.0,9.0,3.0,-1.0,0.1,0.0,-0.0,0.69,0.21,-0.69,-0.03,0.0,0.0,0.0
1752855099712,4.0,71.0,-97.0,9.0,3.0,-0.0,0.0,-0.6,-0.1,0.69,0.22,-0.69,-0.02,0.0,0.0,0.0
1752855099947,351.0,74.0,-95.0,10.0,2.0,-0.0,0.5,-0.2,-0.1,0.7,0.22,-0.68,-0.01,0.0,0.0,0.0
1752855099990,350.0,74.0,-96.0,11.0,3.0,1.0,1.5,0.5,1.5,0.69,0.26,-0.67,0.06,0.0,0.0,0.0
1752855100032,350.0,74.0,-95.0,11.0,4.0,1.0,1.9,0.8,1.0,0.7,0.26,-0.67,0.06,0.0,0.0,0.0
1752855100075,351.0,74.0,-93.0,11.0,3.0,0.0,1.7,0.7,0.6,0.7,0.25,-0.67,0.06,0.0,0.0,0.0
1752855100126,351.0,74.0,-93.0,11.0,3.0,0.0,1.3,0.6,0.5,0.7,0.25,-0.67,0.05,0.0,0.0,0.0
1752855100157,351.0,74.0,-93.0,10.0,3.0,0.0,0.6,0.6,0.4,0.7,0.25,-0.67,0.06,0.0,0.0,0.0
1752855100397,349.0,75.0,-83.0,9.0,2.0,1.0,-0.6,-0.3,0.4,0.71,0.24,-0.66,0.06,0.0,0.0,0.0
1752855100438,348.0,76.0,-80.0,9.0,2.0,1.0,-0.7,0.1,0.1,0.72,0.24,-0.65,0.07,0.0,0.0,0.0
1752855100481,348.0,76.0,-78.0,9.0,2.0,1.0,-1.0,0.0,0.0,0.72,0.23,-0.65,0.08,0.0,0.0,0.0
1752855100631,345.0,77.0,-69.0,8.0,2.0,1.0,-1.3,-0.2,0.5,0.72,0.23,-0.64,0.09,0.0,0.0,0.0
1752855100781,345.0,78.0,-69.0,9.0,2.0,1.0,-0.7,0.0,0.4,0.73,0.22,-0.64,0.1,0.0,0.0,0.0
1752855100831,345.0,77.0,-71.0,9.0,2.0,1.0,-0.7,0.1,0.3,0.72,0.23,-0.64,0.09,0.0,0.0,0.0
1752855100855,345.0,77.0,-75.0,9.0,2.0,0.0,-0.7,0.1,-0.1,0.72,0.23,-0.65,0.09,0.0,0.0,0.0
1752855100998,346.0,77.0,-79.0,9.0,2.0,0.0,-0.4,-0.0,0.1,0.72,0.23,-0.65,0.09,0.0,0.0,0.0
1752855101048,345.0,78.0,-88.0,9.0,2.0,0.0,-0.4,0.3,0.2,0.7,0.24,-0.66,0.09,0.0,0.0,0.0
1752855101089,345.0,78.0,-89.0,10.0,2.0,0.0,0.0,0.1,-0.1,0.7,0.24,-0.66,0.09,0.0,0.0,0.0
1752855101139,345.0,78.0,-90.0,9.0,2.0,0.0,-0.2,0.4,0.4,0.7,0.23,-0.67,0.09,0.0,0.0,0.0
1752855101181,345.0,79.0,-91.0,9.0,2.0,1.0,-0.4,-0.3,0.5,0.7,0.23,-0.67,0.09,0.0,0.0,0.0
1752855101222,345.0,79.0,-93.0,9.0,2.0,-0.0,0.2,0.1,0.3,0.7,0.22,-0.67,0.09,0.0,0.0,0.0
1752855101265,346.0,80.0,-94.0,10.0,2.0,1.0,-0.1,-0.1,0.8,0.7,0.21,-0.68,0.09,0.0,0.0,0.0
1752855101298,347.0,80.0,-95.0,10.0,2.0,-0.0,0.2,0.0,-0.3,0.7,0.2,-0.68,0.08,0.0,0.0,0.0
1752855101345,348.0,80.0,-98.0,10.0,1.0,1.0,0.1,0.0,0.5,0.7,0.19,-0.69,0.07,0.0,0.0,0.0
1752855101396,349.0,81.0,-101.0,10.0,2.0,-0.0,0.6,0.0,0.1,0.69,0.18,-0.69,0.07,0.0,0.0,0.0
1752855101531,352.0,81.0,-112.0,10.0,1.0,-1.0,0.2,-0.1,-0.3,0.68,0.15,-0.71,0.05,0.0,0.0,0.0
1752855101576,352.0,81.0,-116.0,10.0,1.0,-1.0,0.4,-0.2,-0.3,0.68,0.15,-0.71,0.05,0.0,0.0,0.0
1752855101720,353.0,82.0,-117.0,11.0,1.0,-1.0,1.8,0.3,-0.2,0.68,0.13,-0.72,0.04,0.0,0.0,0.0
1752855101861,355.0,83.0,-116.0,11.0,1.0,-0.0,0.8,0.0,0.2,0.69,0.13,-0.72,0.04,0.0,0.0,0.0
1752855101903,356.0,83.0,-118.0,10.0,1.0,-1.0,0.5,-0.1,-0.0,0.69,0.11,-0.72,0.03,0.0,0.0,0.0
1752855101957,356.0,83.0,-119.0,10.0,1.0,-1.0,0.2,-0.0,-0.0,0.69,0.11,-0.72,0.03,0.0,0.0,0.0
1752855101986,356.0,83.0,-119.0,10.0,1.0,-1.0,0.1,0.0,-0.0,0.68,0.11,-0.72,0.03,0.0,0.0,0.0
1752855102137,355.0,83.0,-119.0,10.0,1.0,-0.0,0.1,0.2,0.2,0.68,0.11,-0.72,0.03,0.0,0.0,0.0
1752855102162,355.0,83.0,-118.0,10.0,1.0,-0.0,0.1,0.1,0.2,0.68,0.11,-0.72,0.03,0.0,0.0,0.0
1752855102305,356.0,83.0,-115.0,10.0,1.0,-0.0,-0.0,-0.1,0.3,0.69,0.11,-0.72,0.03,0.0,0.0,0.0
1752855102443,357.0,83.0,-114.0,10.0,1.0,-1.0,0.3,-0.0,-0.1,0.69,0.11,-0.72,0.02,0.0,0.0,0.0
1752855102494,357.0,82.0,-114.0,10.0,0.0,-0.0,0.1,-0.8,0.2,0.69,0.1,-0.72,0.02,0.0,0.0,0.0
1752855102529,360.0,82.0,-110.0,10.0,1.0,-2.0,0.3,-0.6,-1.3,0.69,0.1,-0.72,0.01,0.0,0.0,0.0
1752855102579,2.0,81.0,-102.0,10.0,1.0,-1.0,0.0,-0.8,-1.0,0.7,0.09,-0.71,-0.01,0.0,0.0,0.0
1752855102612,3.0,80.0,-92.0,10.0,1.0,-1.0,0.0,-0.5,-0.9,0.7,0.1,-0.7,-0.02,0.0,0.0,0.0
1752855102753,7.0,73.0,-60.0,9.0,3.0,2.0,-0.0,0.5,0.0,0.75,0.13,-0.65,-0.05,0.0,0.0,0.0
1752855102796,8.0,71.0,-54.0,9.0,3.0,2.0,0.1,0.5,0.1,0.77,0.13,-0.63,-0.05,0.0,0.0,0.0
1752855102836,8.0,69.0,-51.0,9.0,3.0,2.0,0.1,0.5,-0.0,0.78,0.14,-0.61,-0.05,0.0,0.0,0.0
1752855102879,8.0,67.0,-48.0,9.0,4.0,3.0,0.1,0.8,-0.1,0.79,0.14,-0.59,-0.06,0.0,0.0,0.0
1752855102913,8.0,65.0,-45.0,9.0,3.0,3.0,-0.3,0.3,-0.2,0.81,0.15,-0.57,-0.06,0.0,0.0,0.0
1752855102963,8.0,62.0,-41.0,9.0,3.0,4.0,-0.1,0.2,0.3,0.82,0.15,-0.55,-0.06,0.0,0.0,0.0
1752855103004,7.0,60.0,-39.0,8.0,3.0,4.0,-0.3,-0.0,0.2,0.83,0.15,-0.54,-0.05,0.0,0.0,0.0
1752855103246,8.0,47.0,-33.0,7.0,4.0,5.0,-0.5,0.3,-0.8,0.88,0.18,-0.43,-0.06,0.0,0.0,0.0
1752855103296,8.0,45.0,-33.0,7.0,4.0,5.0,-0.3,0.4,-0.8,0.89,0.19,-0.41,-0.06,0.0,0.0,0.0
1752855103330,8.0,42.0,-33.0,6.0,4.0,6.0,-0.5,-0.1,-0.6,0.9,0.19,-0.39,-0.06,0.0,0.0,0.0
1752855103380,8.0,40.0,-32.0,6.0,4.0,6.0,-0.4,-0.4,-0.6,0.91,0.2,-0.37,-0.06,0.0,0.0,0.0
1752855103512,8.0,29.0,-30.0,4.0,4.0,7.0,-0.7,-0.2,-0.5,0.92,0.2,-0.34,-0.06,0.0,0.0,0.0
1752855103562,8.0,26.0,-29.0,4.0,3.0,8.0,-0.7,-1.1,-0.2,0.94,0.21,-0.25,-0.07,0.0,0.0,0.0
1752855103594,8.0,24.0,-29.0,3.0,4.0,8.0,-0.8,-0.7,0.0,0.94,0.22,-0.23,-0.07,0.0,0.0,0.0
1752855103626,9.0,22.0,-29.0,3.0,5.0,8.0,-0.7,-0.3,0.4,0.95,0.22,-0.21,-0.07,0.0,0.0,0.0
1752855103672,9.0,19.0,-29.0,3.0,3.0,8.0,-0.9,-1.4,-0.2,0.95,0.23,-0.19,-0.07,0.0,0.0,0.0
1752855103705,9.0,17.0,-29.0,3.0,5.0,9.0,-0.5,-0.4,0.5,0.96,0.23,-0.17,-0.08,0.0,0.0,0.0
1752855103753,9.0,15.0,-28.0,1.0,2.0,8.0,-1.2,-2.5,0.0,0.96,0.23,-0.16,-0.08,0.0,0.0,0.0
1752855103791,10.0,14.0,-28.0,2.0,6.0,8.0,-0.4,2.1,-0.2,0.96,0.22,-0.14,-0.08,0.0,0.0,0.0
1752855103829,10.0,12.0,-26.0,2.0,5.0,10.0,-0.0,0.1,0.7,0.97,0.21,-0.13,-0.08,0.0,0.0,0.0
1752855103875,10.0,11.0,-26.0,2.0,4.0,10.0,0.6,1.3,0.5,0.97,0.21,-0.11,-0.08,0.0,0.0,0.0
1752855103918,10.0,9.0,-25.0,2.0,4.0,10.0,0.7,0.1,1.3,0.97,0.2,-0.1,-0.08,0.0,0.0,0.0
1752855103964,9.0,9.0,-25.0,2.0,4.0,10.0,0.5,0.0,0.7,0.97,0.2,-0.09,-0.08,0.0,0.0,0.0
1752855104000,10.0,8.0,-23.0,2.0,4.0,9.0,0.6,-0.3,0.4,0.97,0.19,-0.09,-0.08,0.0,0.0,0.0
1752855104050,10.0,7.0,-23.0,2.0,4.0,9.0,0.5,-0.2,0.5,0.98,0.19,-0.08,-0.08,0.0,0.0,0.0
1752855104080,10.0,6.0,-22.0,1.0,4.0,9.0,0.4,-0.0,0.4,0.98,0.19,-0.07,-0.09,0.0,0.0,0.0
1752855104123,11.0,5.0,-21.0,1.0,3.0,9.0,-0.1,-0.3,0.0,0.98,0.18,-0.06,-0.09,0.0,0.0,0.0
1752855104167,11.0,4.0,-21.0,1.0,3.0,9.0,-0.1,-0.2,-0.2,0.98,0.17,-0.05,-0.1,0.0,0.0,0.0
1752855104210,12.0,2.0,-20.0,-2.0,2.0,8.0,-2.0,-1.4,-1.3,0.98,0.17,-0.04,-0.1,0.0,0.0,0.0
1752855104240,13.0,1.0,-20.0,-1.0,3.0,10.0,-0.6,-0.6,1.3,0.98,0.17,-0.03,-0.11,0.0,0.0,0.0
1752855104282,14.0,-1.0,-21.0,0.0,3.0,11.0,0.5,0.1,1.4,0.98,0.18,-0.01,-0.12,0.0,0.0,0.0
1752855104324,16.0,-3.0,-20.0,-0.0,4.0,10.0,0.3,0.2,0.8,0.97,0.18,-0.0,-0.14,0.0,0.0,0.0
1752855104367,18.0,-4.0,-19.0,0.0,4.0,9.0,0.8,0.4,-0.5,0.97,0.17,0.01,-0.15,0.0,0.0,0.0
1752855104404,19.0,-5.0,-19.0,-1.0,3.0,9.0,-0.0,-0.0,-0.2,0.97,0.17,0.02,-0.16,0.0,0.0,0.0
1752855104452,20.0,-6.0,-19.0,-1.0,3.0,9.0,0.1,0.2,-0.2,0.97,0.17,0.02,-0.17,0.0,0.0,0.0
1752855104490,240.0,-6.0,-19.0,-2.0,3.0,7.0,-0.3,-1.1,-2.5,0.49,0.03,0.17,0.86,0.0,0.0,0.0
1752855104523,240.0,-7.0,-19.0,-1.0,3.0,8.0,0.4,1.1,-0.7,0.49,0.03,0.17,0.85,0.0,0.0,0.0
1752855104564,239.0,-9.0,-19.0,-1.0,4.0,10.0,0.6,1.0,0.6,0.49,0.02,0.18,0.85,0.0,0.0,0.0
1752855104607,239.0,-10.0,-18.0,-2.0,3.0,9.0,0.4,-0.2,-0.2,0.48,0.0,0.18,0.86,0.0,0.0,0.0
1752855104974,229.0,-35.0,-17.0,-7.0,1.0,9.0,-1.4,-1.1,1.5,0.39,-0.22,0.24,0.86,0.0,0.0,0.0
1752855105007,228.0,-37.0,-16.0,-6.0,2.0,8.0,-0.1,-0.5,0.6,0.39,-0.24,0.24,0.86,0.0,0.0,0.0
1752855105058,228.0,-39.0,-15.0,-7.0,2.0,8.0,-0.3,-0.3,0.7,0.38,-0.26,0.24,0.85,0.0,0.0,0.0
1752855105092,228.0,-41.0,-15.0,-5.0,1.0,7.0,1.5,-1.0,-0.5,0.38,-0.28,0.24,0.85,0.0,0.0,0.0
1752855105132,227.0,-43.0,-12.0,-7.0,0.0,8.0,-0.6,0.0,0.5,0.37,-0.3,0.22,0.85,0.0,0.0,0.0
1752855105174,227.0,-44.0,-9.0,-8.0,0.0,7.0,-1.0,-0.8,0.2,0.37,-0.32,0.21,0.85,0.0,0.0,0.0
1752855105215,228.0,-47.0,-7.0,-7.0,0.0,6.0,0.2,-0.5,-0.4,0.37,-0.34,0.21,0.84,0.0,0.0,0.0
1752855105258,228.0,-49.0,-4.0,-8.0,1.0,6.0,-0.9,0.4,0.4,0.37,-0.36,0.2,0.83,0.0,0.0,0.0
1752855105306,229.0,-52.0,-3.0,-8.0,0.0,6.0,-1.4,0.1,0.4,0.37,-0.39,0.19,0.82,0.0,0.0,0.0
1752855105343,229.0,-55.0,-1.0,-9.0,1.0,5.0,-0.5,0.7,-0.2,0.37,-0.42,0.19,0.81,0.0,0.0,0.0
1752855105392,229.0,-58.0,1.0,-8.0,0.0,5.0,0.1,-0.0,-0.4,0.36,-0.44,0.19,0.8,0.0,0.0,0.0
1752855105543,228.0,-66.0,4.0,-8.0,0.0,3.0,1.2,0.6,-0.8,0.34,-0.5,0.21,0.77,0.0,0.0,0.0
1752855105576,228.0,-68.0,4.0,-8.0,-1.0,4.0,1.4,-0.3,-0.2,0.34,-0.51,0.21,0.76,0.0,0.0,0.0
1752855105611,229.0,-69.0,5.0,-7.0,-0.0,3.0,1.7,-0.2,-0.6,0.34,-0.52,0.22,0.75,0.0,0.0,0.0
1752855105656,229.0,-70.0,6.0,-7.0,-0.0,3.0,1.7,-0.0,-0.5,0.34,-0.53,0.22,0.75,0.0,0.0,0.0
1752855105705,229.0,-70.0,8.0,-8.0,-1.0,3.0,1.3,-0.9,-0.0,0.34,-0.53,0.21,0.74,0.0,0.0,0.0
1752855105741,230.0,-70.0,11.0,-9.0,-1.0,3.0,0.7,-0.2,-0.2,0.34,-0.54,0.21,0.74,0.0,0.0,0.0
1752855105772,229.0,-70.0,15.0,-9.0,-1.0,3.0,0.2,-2.6,3.2,0.34,-0.55,0.19,0.74,0.0,0.0,0.0
1752855105813,230.0,-70.0,17.0,-9.0,-0.0,1.0,1.4,0.0,-0.6,0.34,-0.55,0.19,0.74,0.0,0.0,0.0
1752855105866,230.0,-70.0,21.0,-9.0,-1.0,2.0,0.7,0.2,-1.2,0.34,-0.55,0.17,0.74,0.0,0.0,0.0
1752855105898,230.0,-70.0,22.0,-9.0,-1.0,3.0,-0.3,0.4,-0.2,0.34,-0.56,0.17,0.74,0.0,0.0,0.0
1752855105934,230.0,-70.0,23.0,-9.0,-1.0,1.0,-0.2,0.3,-1.9,0.34,-0.56,0.17,0.74,0.0,0.0,0.0
1752855105972,229.0,-70.0,25.0,-9.0,-1.0,3.0,0.5,-0.3,0.3,0.34,-0.57,0.16,0.73,0.0,0.0,0.0
1752855106015,228.0,-71.0,27.0,-9.0,-2.0,2.0,0.5,-0.4,-0.6,0.33,-0.58,0.16,0.73,0.0,0.0,0.0
1752855106156,226.0,-75.0,33.0,-9.0,-2.0,3.0,0.3,-1.0,0.5,0.32,-0.58,0.16,0.73,0.0,0.0,0.0
1752855106198,225.0,-75.0,36.0,-10.0,-3.0,3.0,-0.1,-1.4,0.9,0.3,-0.61,0.15,0.72,0.0,0.0,0.0
1752855106239,223.0,-75.0,41.0,-9.0,-2.0,2.0,0.2,-0.4,-0.1,0.28,-0.62,0.13,0.72,0.0,0.0,0.0
1752855106280,223.0,-75.0,44.0,-9.0,-2.0,2.0,0.4,0.2,-0.3,0.28,-0.63,0.13,0.71,0.0,0.0,0.0
1752855106321,223.0,-75.0,48.0,-9.0,-2.0,2.0,0.4,-0.2,0.0,0.28,-0.63,0.12,0.71,0.0,0.0,0.0
1752855106363,223.0,-75.0,50.0,-9.0,-2.0,2.0,0.7,-0.2,-0.1,0.29,-0.63,0.11,0.71,0.0,0.0,0.0
1752855106408,224.0,-75.0,51.0,-8.0,-3.0,1.0,1.3,-0.4,-0.5,0.29,-0.64,0.11,0.71,0.0,0.0,0.0
1752855106441,225.0,-74.0,54.0,-9.0,-2.0,1.0,0.7,-0.6,0.2,0.29,-0.64,0.11,0.7,0.0,0.0,0.0
1752855106491,226.0,-74.0,56.0,-9.0,-3.0,2.0,0.5,-0.3,0.3,0.3,-0.64,0.12,0.7,0.0,0.0,0.0
1752855106525,227.0,-74.0,59.0,-9.0,-3.0,1.0,0.8,-0.4,-0.4,0.3,-0.65,0.12,0.69,0.0,0.0,0.0
1752855106567,229.0,-75.0,61.0,-9.0,-3.0,2.0,0.4,-0.3,0.5,0.31,-0.65,0.12,0.69,0.0,0.0,0.0
1752855106614,229.0,-75.0,63.0,-9.0,-3.0,2.0,0.3,-0.6,0.4,0.31,-0.65,0.13,0.68,0.0,0.0,0.0
1752855106653,229.0,-76.0,63.0,-9.0,-3.0,2.0,0.7,-0.7,0.5,0.31,-0.65,0.13,0.68,0.0,0.0,0.0
1752855106806,228.0,-76.0,64.0,-9.0,-2.0,1.0,0.7,0.0,-0.4,0.3,-0.66,0.13,0.68,0.0,0.0,0.0
1752855106945,225.0,-81.0,66.0,-9.0,-2.0,1.0,0.5,-0.2,0.3,0.28,-0.66,0.17,0.67,0.0,0.0,0.0
1752855106979,224.0,-82.0,65.0,-9.0,-1.0,1.0,0.8,-0.2,0.1,0.28,-0.66,0.18,0.67,0.0,0.0,0.0
1752855107122,222.0,-85.0,4.0,-9.0,-1.0,0.0,0.9,-0.1,-0.4,0.27,-0.66,0.18,0.67,0.0,0.0,0.0
1752855107161,222.0,-85.0,3.0,-9.0,-1.0,0.0,0.6,-0.4,-0.3,0.26,-0.65,0.21,0.68,0.0,0.0,0.0
1752855107407,222.0,-85.0,0.0,-10.0,-0.0,1.0,-0.1,-0.0,-0.3,0.26,-0.65,0.22,0.68,0.0,0.0,0.0
1752855107453,223.0,-85.0,0.0,-10.0,0.0,0.0,0.2,0.0,-0.7,0.27,-0.63,0.24,0.69,0.0,0.0,0.0
1752855107498,223.0,-85.0,-0.0,-9.0,-0.0,1.0,0.3,-0.3,-0.1,0.27,-0.63,0.25,0.69,0.0,0.0,0.0
1752855107542,224.0,-85.0,-0.0,-9.0,-1.0,0.0,0.4,-0.7,-0.3,0.28,-0.63,0.26,0.68,0.0,0.0,0.0
1752855107578,225.0,-86.0,-0.0,-9.0,-1.0,1.0,0.5,-0.7,-0.1,0.28,-0.63,0.26,0.68,0.0,0.0,0.0
1752855107731,227.0,-86.0,1.0,-9.0,-0.0,0.0,0.5,-0.1,0.0,0.29,-0.63,0.27,0.67,0.0,0.0,0.0
1752855107769,232.0,-87.0,2.0,-9.0,-1.0,1.0,0.6,-0.3,0.3,0.32,-0.63,0.29,0.65,0.0,0.0,0.0
1752855107820,234.0,-87.0,2.0,-9.0,-1.0,0.0,0.7,-0.2,-0.0,0.33,-0.63,0.29,0.64,0.0,0.0,0.0
1752855107968,236.0,-86.0,2.0,-9.0,-0.0,0.0,0.3,0.0,-0.3,0.34,-0.62,0.3,0.64,0.0,0.0,0.0
1752855108123,238.0,-86.0,3.0,-10.0,0.0,0.0,0.1,0.4,-0.2,0.35,-0.62,0.3,0.64,0.0,0.0,0.0
1752855108261,240.0,-86.0,3.0,-10.0,-1.0,1.0,0.1,-0.0,0.2,0.36,-0.62,0.31,0.63,0.0,0.0,0.0
1752855108310,240.0,-86.0,3.0,-10.0,-1.0,1.0,0.2,-0.1,0.3,0.36,-0.62,0.31,0.62,0.0,0.0,0.0
1752855108564,243.0,-85.0,4.0,-9.0,-1.0,1.0,0.4,-0.1,0.4,0.37,-0.62,0.32,0.62,0.0,0.0,0.0
1752855108623,244.0,-85.0,4.0,-9.0,-1.0,1.0,0.3,-0.1,0.4,0.38,-0.61,0.32,0.62,0.0,0.0,0.0
1752855108757,245.0,-84.0,5.0,-10.0,-1.0,1.0,0.1,-0.8,0.4,0.38,-0.61,0.32,0.62,0.0,0.0,0.0
1752855108808,244.0,-83.0,5.0,-9.0,-1.0,1.0,0.4,-0.3,0.3,0.39,-0.61,0.31,0.62,0.0,0.0,0.0
1752855108857,244.0,-83.0,52.0,-9.0,-2.0,1.0,0.5,-0.5,0.0,0.39,-0.61,0.3,0.62,0.0,0.0,0.0
1752855108898,243.0,-82.0,53.0,-9.0,-1.0,1.0,0.3,-0.1,0.8,0.39,-0.61,0.29,0.63,0.0,0.0,0.0
1752855108941,243.0,-82.0,52.0,-9.0,-2.0,2.0,0.6,-0.3,0.9,0.39,-0.61,0.29,0.63,0.0,0.0,0.0
1752855108974,241.0,-81.0,50.0,-10.0,-1.0,1.0,0.1,0.4,-0.1,0.38,-0.61,0.27,0.64,0.0,0.0,0.0
1752855109016,239.0,-80.0,48.0,-9.0,-0.0,1.0,0.3,0.8,-0.6,0.37,-0.62,0.26,0.65,0.0,0.0,0.0
1752855109058,237.0,-80.0,46.0,-10.0,-0.0,1.0,0.1,0.9,-0.4,0.36,-0.62,0.25,0.66,0.0,0.0,0.0
1752855109105,235.0,-81.0,42.0,-10.0,-1.0,1.0,0.0,-0.4,0.2,0.34,-0.62,0.24,0.66,0.0,0.0,0.0
1752855109134,233.0,-81.0,36.0,-10.0,-1.0,1.0,-0.2,0.3,0.1,0.33,-0.62,0.24,0.67,0.0,0.0,0.0
1752855109175,230.0,-82.0,32.0,-10.0,-1.0,1.0,-0.1,-0.3,-0.2,0.32,-0.62,0.23,0.68,0.0,0.0,0.0
1752855109315,222.0,-82.0,16.0,-10.0,0.0,2.0,-0.1,0.8,0.2,0.27,-0.62,0.22,0.7,0.0,0.0,0.0
1752855109359,221.0,-82.0,14.0,-9.0,-1.0,2.0,0.2,-0.5,0.2,0.26,-0.62,0.21,0.71,0.0,0.0,0.0
1752855109406,219.0,-82.0,13.0,-10.0,-0.0,2.0,0.1,0.4,0.2,0.25,-0.63,0.2,0.71,0.0,0.0,0.0
1752855109455,218.0,-82.0,12.0,-9.0,-0.0,2.0,0.4,-0.3,0.1,0.24,-0.63,0.19,0.72,0.0,0.0,0.0
1752855109472,216.0,-81.0,12.0,-10.0,-0.0,2.0,0.0,0.1,0.6,0.23,-0.63,0.18,0.72,0.0,0.0,0.0
1752855109522,214.0,-81.0,13.0,-10.0,-0.0,2.0,0.0,0.1,0.4,0.23,-0.63,0.17,0.72,0.0,0.0,0.0
1752855109566,212.0,-81.0,13.0,-10.0,1.0,2.0,-0.2,1.3,0.3,0.21,-0.63,0.16,0.73,0.0,0.0,0.0
1752855109607,211.0,-81.0,13.0,-10.0,2.0,1.0,-0.2,2.0,-0.4,0.21,-0.63,0.15,0.73,0.0,0.0,0.0
1752855109652,210.0,-81.0,13.0,-10.0,3.0,1.0,-0.1,2.9,-0.6,0.2,-0.63,0.15,0.73,0.0,0.0,0.0
1752855109697,209.0,-81.0,11.0,-10.0,3.0,1.0,-0.5,3.0,-0.0,0.19,-0.63,0.15,0.73,0.0,0.0,0.0
1752855109739,209.0,-82.0,10.0,-10.0,3.0,2.0,-0.6,2.9,0.3,0.19,-0.64,0.15,0.73,0.0,0.0,0.0
1752855109776,210.0,-82.0,10.0,-10.0,2.0,2.0,-0.6,2.6,0.8,0.19,-0.64,0.15,0.73,0.0,0.0,0.0
1752855109824,210.0,-83.0,11.0,-10.0,2.0,2.0,-0.2,2.2,0.4,0.2,-0.64,0.16,0.72,0.0,0.0,0.0
1752855109862,211.0,-83.0,12.0,-10.0,2.0,1.0,-0.1,1.9,0.3,0.2,-0.64,0.16,0.72,0.0,0.0,0.0
1752855109896,213.0,-83.0,14.0,-10.0,1.0,1.0,0.0,0.9,0.1,0.21,-0.64,0.17,0.72,0.0,0.0,0.0
1752855109944,215.0,-83.0,15.0,-10.0,0.0,1.0,0.1,0.4,0.3,0.22,-0.64,0.18,0.71,0.0,0.0,0.0
1752855109981,217.0,-83.0,2.0,-9.0,-1.0,1.0,0.3,-0.3,0.4,0.24,-0.64,0.19,0.71,0.0,0.0,0.0
1752855110022,220.0,-84.0,2.0,-9.0,-2.0,2.0,0.3,-1.2,0.9,0.25,-0.64,0.2,0.7,0.0,0.0,0.0
1752855110066,222.0,-84.0,2.0,-9.0,-1.0,2.0,0.4,-0.9,0.6,0.26,-0.64,0.22,0.69,0.0,0.0,0.0
1752855110100,224.0,-84.0,2.0,-9.0,-2.0,1.0,0.8,-1.3,0.7,0.28,-0.63,0.23,0.69,0.0,0.0,0.0
1752855110135,227.0,-84.0,2.0,-9.0,-2.0,2.0,0.8,-1.2,0.8,0.29,-0.63,0.24,0.68,0.0,0.0,0.0
1752855110182,230.0,-84.0,3.0,-9.0,-2.0,1.0,0.8,-1.3,0.3,0.31,-0.63,0.25,0.67,0.0,0.0,0.0
1752855110236,231.0,-84.0,4.0,-9.0,-2.0,1.0,0.6,-1.1,0.3,0.32,-0.63,0.25,0.67,0.0,0.0,0.0
1752855110270,233.0,-83.0,42.0,-9.0,-2.0,1.0,0.5,-1.3,-0.2,0.33,-0.63,0.25,0.66,0.0,0.0,0.0
1752855110321,234.0,-83.0,43.0,-9.0,-2.0,1.0,0.2,-1.3,0.0,0.34,-0.62,0.25,0.66,0.0,0.0,0.0
1752855110355,235.0,-82.0,47.0,-10.0,-2.0,1.0,0.1,-1.3,-0.3,0.34,-0.63,0.25,0.66,0.0,0.0,0.0
1752855110406,235.0,-81.0,51.0,-10.0,-2.0,1.0,-0.0,-0.8,0.1,0.34,-0.63,0.24,0.66,0.0,0.0,0.0
1752855110440,235.0,-81.0,51.0,-10.0,-2.0,1.0,0.2,-0.6,-0.4,0.34,-0.63,0.24,0.66,0.0,0.0,0.0
1752855110486,233.0,-82.0,50.0,-9.0,-2.0,1.0,0.3,-0.8,0.2,0.33,-0.63,0.23,0.66,0.0,0.0,0.0
1752855110526,231.0,-82.0,49.0,-9.0,-2.0,1.0,0.3,-0.7,-0.1,0.32,-0.64,0.22,0.67,0.0,0.0,0.0
1752855110559,229.0,-82.0,49.0,-9.0,-2.0,1.0,0.3,-1.1,0.5,0.3,-0.64,0.22,0.67,0.0,0.0,0.0
1752855110605,226.0,-83.0,48.0,-10.0,-2.0,1.0,0.3,-0.7,0.5,0.29,-0.64,0.21,0.68,0.0,0.0,0.0
1752855110642,223.0,-83.0,5.0,-9.0,-3.0,2.0,0.6,-1.8,1.0,0.27,-0.65,0.19,0.68,0.0,0.0,0.0
1752855110690,219.0,-84.0,5.0,-10.0,-1.0,2.0,0.2,0.1,1.2,0.25,-0.66,0.18,0.69,0.0,0.0,0.0
1752855110728,215.0,-84.0,5.0,-9.0,-1.0,1.0,0.4,-0.3,0.5,0.23,-0.66,0.16,0.7,0.0,0.0,0.0
1752855110779,212.0,-84.0,4.0,-10.0,-0.0,2.0,-0.1,0.5,1.2,0.21,-0.67,0.14,0.7,0.0,0.0,0.0
1752855110814,208.0,-84.0,4.0,-10.0,-1.0,2.0,0.2,-0.6,1.0,0.17,-0.67,0.12,0.71,0.0,0.0,0.0
1752855110848,204.0,-84.0,4.0,-10.0,-0.0,2.0,-0.2,0.6,1.6,0.15,-0.67,0.1,0.72,0.0,0.0,0.0
1752855110899,201.0,-85.0,4.0,-10.0,-0.0,2.0,0.2,-0.2,1.4,0.13,-0.68,0.08,0.72,0.0,0.0,0.0
1752855110930,196.0,-85.0,3.0,-10.0,1.0,3.0,-0.3,1.1,1.8,0.11,-0.68,0.06,0.72,0.0,0.0,0.0
1752855110983,192.0,-85.0,3.0,-9.0,-0.0,2.0,1.0,0.0,1.6,0.09,-0.68,0.04,0.73,0.0,0.0,0.0
1752855111017,190.0,-85.0,3.0,-9.0,1.0,3.0,0.6,1.3,2.0,0.06,-0.68,0.02,0.73,0.0,0.0,0.0
1752855111050,186.0,-85.0,3.0,-10.0,3.0,3.0,0.1,2.8,2.5,0.04,-0.68,0.0,0.73,0.0,0.0,0.0
1752855111098,183.0,-84.0,3.0,-10.0,2.0,3.0,0.1,2.8,2.2,0.02,-0.68,-0.02,0.74,0.0,0.0,0.0
1752855111232,179.0,-84.0,3.0,-9.0,4.0,2.0,0.3,4.0,0.6,-0.0,-0.67,-0.04,0.74,0.0,0.0,0.0
1752855111285,170.0,-83.0,6.0,-9.0,4.0,2.0,0.3,4.6,0.6,-0.06,-0.66,-0.07,0.75,0.0,0.0,0.0
1752855111318,169.0,-83.0,3.0,-9.0,3.0,2.0,0.4,3.3,0.8,-0.07,-0.66,-0.07,0.75,0.0,0.0,0.0
1752855111352,169.0,-83.0,-0.0,-10.0,3.0,3.0,-0.0,3.2,1.5,-0.07,-0.66,-0.06,0.74,0.0,0.0,0.0
1752855111402,170.0,-83.0,-1.0,-10.0,3.0,3.0,0.3,2.5,1.4,-0.06,-0.66,-0.06,0.75,0.0,0.0,0.0
1752855111432,172.0,-83.0,2.0,-9.0,2.0,2.0,0.6,2.5,0.9,-0.05,-0.66,-0.05,0.75,0.0,0.0,0.0
1752855111472,175.0,-82.0,5.0,-9.0,2.0,3.0,0.4,1.7,1.2,-0.04,-0.66,-0.04,0.75,0.0,0.0,0.0
1752855111612,177.0,-82.0,6.0,-9.0,-0.0,3.0,0.4,0.0,1.3,-0.02,-0.66,-0.03,0.75,0.0,0.0,0.0
1752855111661,186.0,-81.0,6.0,-9.0,-0.0,3.0,0.4,-0.1,1.0,0.04,-0.65,0.02,0.76,0.0,0.0,0.0
1752855111696,189.0,-81.0,4.0,-10.0,-1.0,3.0,0.2,-0.5,1.2,0.06,-0.65,0.04,0.76,0.0,0.0,0.0
1752855111742,192.0,-81.0,1.0,-9.0,-1.0,3.0,0.2,-0.9,1.2,0.08,-0.65,0.06,0.76,0.0,0.0,0.0
1752855111783,194.0,-81.0,-1.0,-9.0,-1.0,2.0,0.4,-0.7,0.4,0.09,-0.64,0.08,0.76,0.0,0.0,0.0
1752855112026,200.0,-80.0,-2.0,-10.0,-1.0,2.0,-0.2,-0.4,-0.2,0.13,-0.63,0.11,0.76,0.0,0.0,0.0
1752855112063,205.0,-78.0,9.0,-10.0,-0.0,2.0,-0.3,0.1,-0.4,0.17,-0.62,0.12,0.76,0.0,0.0,0.0
1752855112108,206.0,-78.0,11.0,-10.0,-1.0,2.0,-0.0,-0.2,-0.1,0.18,-0.62,0.12,0.76,0.0,0.0,0.0
1752855112145,207.0,-78.0,13.0,-10.0,-1.0,2.0,0.0,-0.4,0.0,0.18,-0.62,0.12,0.76,0.0,0.0,0.0
1752855112183,207.0,-78.0,14.0,-9.0,-1.0,2.0,0.1,-0.4,0.2,0.18,-0.62,0.11,0.76,0.0,0.0,0.0
1752855112227,206.0,-78.0,15.0,-10.0,-2.0,2.0,0.1,-1.1,0.4,0.18,-0.62,0.11,0.76,0.0,0.0,0.0
1752855112269,205.0,-78.0,14.0,-9.0,-1.0,2.0,0.2,-1.0,0.4,0.17,-0.62,0.1,0.76,0.0,0.0,0.0
1752855112405,198.0,-78.0,19.0,-10.0,-2.0,3.0,-0.1,-1.2,1.1,0.16,-0.62,0.09,0.76,0.0,0.0,0.0
1752855112448,195.0,-78.0,19.0,-10.0,-1.0,3.0,0.0,0.0,1.1,0.1,-0.63,0.04,0.77,0.0,0.0,0.0
1752855112486,190.0,-78.0,19.0,-9.0,-1.0,3.0,0.2,0.0,1.1,0.07,-0.64,0.02,0.77,0.0,0.0,0.0
1752855112530,185.0,-79.0,18.0,-10.0,-0.0,4.0,0.1,0.6,2.0,0.04,-0.64,-0.0,0.77,0.0,0.0,0.0
1752855112578,179.0,-79.0,18.0,-9.0,-0.0,4.0,0.3,0.2,1.9,0.01,-0.64,-0.03,0.77,0.0,0.0,0.0
1752855112620,176.0,-80.0,16.0,-9.0,1.0,4.0,0.2,1.9,2.3,-0.03,-0.64,-0.05,0.77,0.0,0.0,0.0
1752855112662,172.0,-80.0,15.0,-9.0,1.0,4.0,0.8,1.5,2.3,-0.06,-0.64,-0.08,0.76,0.0,0.0,0.0
1752855112697,167.0,-80.0,12.0,-9.0,1.0,4.0,1.0,1.8,2.6,-0.09,-0.64,-0.09,0.76,0.0,0.0,0.0
1752855112747,163.0,-81.0,8.0,-9.0,3.0,3.0,0.9,3.2,1.4,-0.11,-0.64,-0.11,0.75,0.0,0.0,0.0
1752855112777,157.0,-81.0,1.0,-9.0,3.0,3.0,0.9,2.5,1.5,-0.14,-0.64,-0.13,0.75,0.0,0.0,0.0
1752855112820,155.0,-81.0,-4.0,-9.0,3.0,3.0,1.0,2.5,1.6,-0.17,-0.64,-0.14,0.74,0.0,0.0,0.0
1752855112856,151.0,-81.0,-8.0,-9.0,3.0,2.0,0.8,3.1,1.1,-0.19,-0.63,-0.15,0.74,0.0,0.0,0.0
1752855112897,149.0,-81.0,-13.0,-9.0,3.0,3.0,0.6,2.8,1.3,-0.2,-0.63,-0.15,0.73,0.0,0.0,0.0
1752855112945,146.0,-81.0,-20.0,-9.0,2.0,3.0,0.3,1.9,1.3,-0.22,-0.64,-0.16,0.72,0.0,0.0,0.0
1752855112981,145.0,-81.0,-21.0,-9.0,3.0,2.0,0.3,2.0,0.9,-0.23,-0.63,-0.16,0.72,0.0,0.0,0.0
1752855113331,147.0,-80.0,-17.0,-9.0,1.0,3.0,0.3,0.1,0.3,-0.23,-0.63,-0.16,0.72,0.0,0.0,0.0
1752855113364,154.0,-80.0,-9.0,-9.0,0.0,3.0,0.1,0.2,1.1,-0.18,-0.63,-0.13,0.74,0.0,0.0,0.0
1752855113414,158.0,-81.0,-5.0,-9.0,0.0,2.0,0.3,0.7,0.2,-0.14,-0.64,-0.11,0.75,0.0,0.0,0.0
1752855113451,164.0,-80.0,1.0,-9.0,1.0,2.0,0.4,0.5,1.2,-0.11,-0.64,-0.09,0.76,0.0,0.0,0.0
1752855113507,173.0,-80.0,5.0,-9.0,2.0,2.0,0.5,2.3,-0.1,-0.05,-0.64,-0.05,0.76,0.0,0.0,0.0
1752855113538,182.0,-79.0,3.0,-9.0,-0.0,3.0,0.4,-0.2,0.8,-0.0,-0.64,-0.01,0.77,0.0,0.0,0.0
1752855113569,188.0,-79.0,1.0,-9.0,1.0,1.0,1.0,1.0,-0.5,0.06,-0.63,0.04,0.77,0.0,0.0,0.0
1752855113611,195.0,-78.0,2.0,-9.0,0.0,2.0,0.5,0.0,-0.0,0.1,-0.62,0.08,0.77,0.0,0.0,0.0
1752855113649,201.0,-77.0,2.0,-10.0,2.0,3.0,-0.4,1.2,0.5,0.14,-0.62,0.11,0.77,0.0,0.0,0.0
1752855113693,205.0,-77.0,4.0,-10.0,0.0,3.0,-0.6,0.8,0.8,0.17,-0.61,0.12,0.76,0.0,0.0,0.0
1752855113734,208.0,-77.0,6.0,-10.0,1.0,3.0,-0.5,1.5,0.6,0.18,-0.61,0.13,0.76,0.0,0.0,0.0
1752855113776,207.0,-77.0,5.0,-10.0,0.0,3.0,-0.4,0.6,1.0,0.19,-0.6,0.13,0.76,0.0,0.0,0.0
1752855113823,205.0,-76.0,3.0,-9.0,0.0,3.0,0.4,0.4,0.7,0.17,-0.61,0.12,0.77,0.0,0.0,0.0
1752855113858,199.0,-76.0,2.0,-10.0,2.0,3.0,-0.1,2.5,1.0,0.13,-0.61,0.1,0.78,0.0,0.0,0.0
1752855113898,191.0,-76.0,3.0,-9.0,1.0,2.0,0.7,0.8,-0.5,0.08,-0.61,0.05,0.79,0.0,0.0,0.0
1752855113939,182.0,-75.0,4.0,-10.0,2.0,4.0,-0.5,3.2,2.0,0.02,-0.61,-0.0,0.79,0.0,0.0,0.0
1752855114096,168.0,-74.0,12.0,-10.0,-0.0,4.0,-0.5,0.0,0.7,-0.07,-0.6,-0.08,0.79,0.0,0.0,0.0
1752855114130,141.0,-75.0,-3.0,-9.0,-1.0,4.0,-0.0,-1.1,1.7,-0.25,-0.58,-0.19,0.75,0.0,0.0,0.0
1752855114271,136.0,-75.0,-10.0,-8.0,1.0,3.0,1.0,0.0,-0.1,-0.29,-0.58,-0.2,0.74,0.0,0.0,0.0
1752855114316,128.0,-72.0,-20.0,-8.0,0.0,3.0,0.9,-0.8,0.5,-0.35,-0.56,-0.2,0.72,0.0,0.0,0.0
1752855114348,129.0,-72.0,-21.0,-9.0,1.0,3.0,0.4,0.4,0.4,-0.34,-0.57,-0.19,0.72,0.0,0.0,0.0
1752855114395,135.0,-73.0,-21.0,-9.0,-0.0,4.0,0.3,-1.1,1.4,-0.32,-0.58,-0.17,0.73,0.0,0.0,0.0
1752855114440,140.0,-74.0,-16.0,-9.0,0.0,3.0,0.3,-0.3,0.3,-0.28,-0.58,-0.16,0.75,0.0,0.0,0.0
1752855114581,169.0,-71.0,24.0,-10.0,-1.0,4.0,-0.9,0.8,1.3,-0.09,-0.58,-0.13,0.8,0.0,0.0,0.0
1752855114624,175.0,-69.0,31.0,-9.0,-1.0,3.0,0.0,1.3,0.2,-0.04,-0.57,-0.14,0.81,0.0,0.0,0.0
1752855114675,183.0,-65.0,34.0,-9.0,-1.0,5.0,-0.4,1.6,0.8,0.02,-0.56,-0.13,0.82,0.0,0.0,0.0
1752855114708,189.0,-61.0,38.0,-8.0,-1.0,3.0,0.1,2.1,-0.4,0.06,-0.54,-0.14,0.83,0.0,0.0,0.0
1752855114843,196.0,-58.0,36.0,-8.0,-1.0,5.0,-0.2,2.1,0.1,0.11,-0.52,-0.11,0.84,0.0,0.0,0.0
1752855115195,184.0,-60.0,25.0,-8.0,-1.0,4.0,0.5,0.9,-0.3,0.04,-0.51,-0.1,0.85,0.0,0.0,0.0
1752855115236,176.0,-62.0,21.0,-9.0,0.0,4.0,-0.6,1.9,0.0,-0.02,-0.51,-0.12,0.85,0.0,0.0,0.0
1752855115276,170.0,-63.0,17.0,-9.0,-1.0,4.0,-0.1,0.0,-0.3,-0.07,-0.52,-0.12,0.84,0.0,0.0,0.0
1752855115313,163.0,-65.0,8.0,-10.0,0.0,5.0,-1.1,0.4,1.0,-0.12,-0.53,-0.11,0.83,0.0,0.0,0.0
1752855115353,157.0,-66.0,-3.0,-9.0,-1.0,5.0,-0.4,-1.2,1.4,-0.17,-0.54,-0.1,0.82,0.0,0.0,0.0
1752855115396,151.0,-66.0,-13.0,-9.0,0.0,5.0,-0.3,-1.0,1.0,-0.21,-0.54,-0.08,0.81,0.0,0.0,0.0
1752855115541,139.0,-64.0,-34.0,-9.0,1.0,5.0,0.1,-1.8,1.3,-0.29,-0.56,-0.05,0.78,0.0,0.0,0.0
1752855115592,139.0,-64.0,-34.0,-9.0,2.0,4.0,0.3,-0.5,0.9,-0.29,-0.56,-0.05,0.77,0.0,0.0,0.0
1752855115623,141.0,-65.0,-33.0,-9.0,2.0,4.0,0.2,0.1,0.6,-0.28,-0.56,-0.05,0.78,0.0,0.0,0.0
1752855115652,143.0,-66.0,-29.0,-9.0,3.0,4.0,0.3,1.1,0.5,-0.26,-0.56,-0.06,0.78,0.0,0.0,0.0
1752855115705,148.0,-67.0,-24.0,-9.0,3.0,4.0,0.4,1.2,0.2,-0.23,-0.56,-0.06,0.79,0.0,0.0,0.0
1752855115742,152.0,-68.0,-19.0,-9.0,2.0,4.0,0.2,1.3,0.3,-0.21,-0.57,-0.07,0.8,0.0,0.0,0.0
1752855115777,155.0,-69.0,-15.0,-9.0,2.0,4.0,0.5,1.7,0.3,-0.17,-0.57,-0.07,0.8,0.0,0.0,0.0
1752855115818,161.0,-71.0,-12.0,-9.0,2.0,4.0,-0.1,1.2,0.8,-0.13,-0.58,-0.06,0.8,0.0,0.0,0.0
1752855115852,166.0,-72.0,-6.0,-9.0,3.0,3.0,-0.1,2.8,-0.0,-0.1,-0.59,-0.05,0.8,0.0,0.0,0.0
1752855115892,171.0,-74.0,2.0,-10.0,3.0,3.0,-0.3,2.4,1.0,-0.06,-0.6,-0.05,0.8,0.0,0.0,0.0
1752855115938,176.0,-75.0,11.0,-10.0,2.0,3.0,-0.2,2.9,1.0,-0.03,-0.61,-0.05,0.79,0.0,0.0,0.0
1752855115982,179.0,-76.0,13.0,-10.0,2.0,4.0,-0.0,2.9,1.3,-0.01,-0.62,-0.04,0.79,0.0,0.0,0.0
1752855116019,182.0,-77.0,17.0,-9.0,2.0,3.0,0.5,2.2,0.9,0.01,-0.62,-0.03,0.78,0.0,0.0,0.0
1752855116055,184.0,-78.0,19.0,-9.0,1.0,3.0,0.3,2.0,1.3,0.02,-0.63,-0.03,0.78,0.0,0.0,0.0
1752855116098,186.0,-78.0,19.0,-9.0,1.0,3.0,0.2,1.5,1.3,0.04,-0.64,-0.01,0.77,0.0,0.0,0.0
1752855116141,187.0,-80.0,19.0,-9.0,1.0,2.0,0.4,1.4,0.5,0.05,-0.64,0.0,0.76,0.0,0.0,0.0
1752855116286,194.0,-83.0,12.0,-10.0,-4.0,2.0,-0.0,-3.5,0.9,0.06,-0.65,0.02,0.76,0.0,0.0,0.0
1752855116336,195.0,-83.0,14.0,-10.0,-3.0,1.0,-0.2,-2.4,-0.3,0.1,-0.66,0.07,0.74,0.0,0.0,0.0
1752855116370,196.0,-83.0,16.0,-10.0,-3.0,1.0,-0.3,-3.2,0.5,0.1,-0.66,0.07,0.74,0.0,0.0,0.0
1752855116404,196.0,-83.0,16.0,-10.0,-4.0,1.0,0.3,-3.9,0.2,0.1,-0.66,0.07,0.74,0.0,0.0,0.0
1752855116554,189.0,-83.0,3.0,-9.0,-5.0,4.0,0.5,-3.7,2.6,0.06,-0.67,0.02,0.74,0.0,0.0,0.0
1752855116696,175.0,-82.0,52.0,-10.0,2.0,3.0,-0.0,3.1,2.0,-0.02,-0.67,-0.1,0.74,0.0,0.0,0.0
1752855116738,171.0,-82.0,58.0,-9.0,2.0,3.0,0.2,3.3,2.1,-0.05,-0.67,-0.13,0.73,0.0,0.0,0.0
1752855116784,169.0,-82.0,61.0,-9.0,3.0,2.0,0.2,3.8,1.8,-0.07,-0.67,-0.15,0.73,0.0,0.0,0.0
1752855116819,165.0,-82.0,65.0,-9.0,4.0,1.0,0.7,4.7,0.4,-0.09,-0.66,-0.17,0.72,0.0,0.0,0.0
1752855116855,162.0,-82.0,67.0,-9.0,4.0,1.0,0.7,4.9,0.1,-0.11,-0.66,-0.19,0.72,0.0,0.0,0.0
1752855116997,158.0,-84.0,6.0,-9.0,3.0,1.0,0.7,4.1,0.2,-0.12,-0.66,-0.2,0.71,0.0,0.0,0.0
1752855117039,158.0,-84.0,6.0,-9.0,2.0,1.0,0.4,3.3,0.5,-0.14,-0.66,-0.2,0.71,0.0,0.0,0.0
1752855117089,159.0,-84.0,5.0,-10.0,2.0,2.0,0.1,3.1,1.6,-0.13,-0.67,-0.19,0.71,0.0,0.0,0.0
1752855117119,160.0,-84.0,5.0,-9.0,2.0,1.0,0.2,2.4,1.1,-0.12,-0.67,-0.18,0.71,0.0,0.0,0.0
1752855117156,162.0,-84.0,5.0,-10.0,0.0,3.0,-0.0,1.1,2.8,-0.11,-0.67,-0.17,0.72,0.0,0.0,0.0
1752855117408,169.0,-83.0,28.0,-10.0,-0.0,3.0,-0.4,-0.3,1.6,-0.07,-0.66,-0.1,0.74,0.0,0.0,0.0
1752855117458,176.0,-81.0,7.0,-9.0,-1.0,2.0,0.4,-0.7,0.7,-0.03,-0.65,-0.04,0.76,0.0,0.0,0.0
1752855117491,179.0,-80.0,4.0,-10.0,-1.0,2.0,-0.0,-0.9,0.7,-0.01,-0.65,-0.02,0.76,0.0,0.0,0.0
1752855117545,180.0,-79.0,3.0,-10.0,-2.0,2.0,0.1,-1.7,0.4,-0.0,-0.64,-0.01,0.77,0.0,0.0,0.0
1752855117589,182.0,-78.0,1.0,-10.0,-2.0,2.0,-0.1,-2.6,0.4,0.01,-0.63,0.01,0.78,0.0,0.0,0.0
1752855117607,184.0,-77.0,1.0,-10.0,-3.0,2.0,-0.3,-2.5,0.3,0.02,-0.63,0.02,0.78,0.0,0.0,0.0
1752855117655,185.0,-77.0,5.0,-10.0,-3.0,3.0,-0.2,-2.9,0.2,0.03,-0.62,0.02,0.78,0.0,0.0,0.0
1752855117701,186.0,-76.0,6.0,-10.0,-2.0,3.0,-0.3,-1.8,0.6,0.04,-0.62,0.02,0.78,0.0,0.0,0.0
1752855117948,185.0,-77.0,12.0,-9.0,-1.0,3.0,0.1,0.6,1.4,0.03,-0.62,-0.0,0.78,0.0,0.0,0.0
1752855118088,173.0,-77.0,28.0,-9.0,1.0,3.0,0.2,1.9,0.9,-0.05,-0.62,-0.11,0.77,0.0,0.0,0.0
1752855118237,164.0,-77.0,26.0,-9.0,1.0,2.0,0.2,2.2,0.2,-0.06,-0.62,-0.13,0.77,0.0,0.0,0.0
1752855118271,163.0,-78.0,26.0,-9.0,1.0,2.0,0.3,2.1,0.3,-0.11,-0.62,-0.15,0.76,0.0,0.0,0.0
1752855118307,161.0,-78.0,22.0,-9.0,1.0,2.0,0.3,1.9,0.2,-0.13,-0.62,-0.16,0.76,0.0,0.0,0.0
1752855118443,158.0,-79.0,18.0,-10.0,0.0,2.0,0.1,1.0,0.4,-0.14,-0.62,-0.16,0.76,0.0,0.0,0.0
1752855118494,157.0,-79.0,17.0,-9.0,-0.0,2.0,0.3,0.5,0.4,-0.15,-0.62,-0.16,0.75,0.0,0.0,0.0
1752855118523,158.0,-79.0,18.0,-9.0,-0.0,2.0,0.2,0.6,0.4,-0.15,-0.62,-0.16,0.75,0.0,0.0,0.0
1752855118562,158.0,-79.0,19.0,-10.0,0.0,3.0,0.2,0.8,0.7,-0.15,-0.62,-0.16,0.76,0.0,0.0,0.0
1752855118701,158.0,-78.0,17.0,-8.0,1.0,2.0,1.7,1.4,-0.6,-0.15,-0.62,-0.16,0.76,0.0,0.0,0.0
1752855118753,159.0,-78.0,13.0,-8.0,1.0,2.0,1.4,1.2,0.8,-0.14,-0.62,-0.15,0.76,0.0,0.0,0.0
1752855118795,160.0,-79.0,10.0,-9.0,0.0,3.0,0.8,0.2,1.1,-0.14,-0.62,-0.13,0.76,0.0,0.0,0.0
1752855118842,161.0,-78.0,7.0,-8.0,0.0,3.0,1.2,0.5,0.6,-0.13,-0.62,-0.12,0.76,0.0,0.0,0.0
1752855118880,162.0,-78.0,5.0,-8.0,1.0,3.0,1.1,0.8,1.2,-0.12,-0.62,-0.11,0.77,0.0,0.0,0.0
1752855118919,163.0,-78.0,1.0,-8.0,0.0,4.0,1.8,0.6,0.9,-0.12,-0.62,-0.1,0.77,0.0,0.0,0.0
1752855118954,163.0,-77.0,-1.0,-8.0,1.0,3.0,1.7,0.7,0.8,-0.12,-0.62,-0.09,0.77,0.0,0.0,0.0
1752855119002,164.0,-76.0,-5.0,-7.0,0.0,4.0,2.1,0.0,1.4,-0.11,-0.61,-0.08,0.78,0.0,0.0,0.0
1752855119044,164.0,-75.0,-6.0,-8.0,1.0,4.0,1.5,0.2,1.3,-0.11,-0.61,-0.07,0.78,0.0,0.0,0.0
1752855119081,164.0,-74.0,-8.0,-8.0,1.0,4.0,1.0,0.5,1.3,-0.11,-0.6,-0.06,0.79,0.0,0.0,0.0
1752855119116,165.0,-72.0,-10.0,-9.0,0.0,5.0,0.2,-1.0,2.3,-0.11,-0.59,-0.05,0.8,0.0,0.0,0.0
1752855119156,165.0,-70.0,-11.0,-9.0,-0.0,5.0,-0.3,-0.6,1.5,-0.11,-0.58,-0.04,0.81,0.0,0.0,0.0
1752855119413,170.0,-60.0,-7.0,-10.0,2.0,5.0,-0.9,1.7,0.3,-0.08,-0.51,-0.01,0.86,0.0,0.0,0.0
1752855119446,172.0,-61.0,-8.0,-9.0,3.0,6.0,-0.3,2.5,0.8,-0.06,-0.51,0.0,0.86,0.0,0.0,0.0
1752855119596,174.0,-62.0,-8.0,-8.0,2.0,6.0,1.3,0.6,1.8,-0.05,-0.51,0.01,0.86,0.0,0.0,0.0
1752855119627,179.0,-64.0,-15.0,-8.0,0.0,6.0,1.1,-0.8,1.2,-0.01,-0.53,0.06,0.84,0.0,0.0,0.0
1752855119664,180.0,-64.0,-18.0,-8.0,1.0,5.0,0.4,-1.0,0.4,-0.0,-0.53,0.08,0.84,0.0,0.0,0.0
1752855119704,181.0,-63.0,-21.0,-9.0,-1.0,4.0,-0.1,-3.8,-0.4,0.0,-0.53,0.1,0.84,0.0,0.0,0.0
1752855119866,181.0,-62.0,-24.0,-10.0,-4.0,3.0,-1.3,-5.8,-0.9,0.01,-0.52,0.11,0.84,0.0,0.0,0.0
1752855119907,180.0,-61.0,-21.0,-10.0,-2.0,6.0,-1.1,-4.1,1.3,0.0,-0.51,0.11,0.85,0.0,0.0,0.0
1752855119943,179.0,-62.0,-19.0,-9.0,-1.0,6.0,-0.8,-1.9,1.2,-0.01,-0.52,0.09,0.85,0.0,0.0,0.0
1752855119994,176.0,-63.0,-15.0,-9.0,-0.0,6.0,0.3,-1.6,2.8,-0.03,-0.53,0.06,0.85,0.0,0.0,0.0
1752855120029,173.0,-64.0,-14.0,-8.0,-0.0,8.0,0.7,-0.8,3.6,-0.05,-0.54,0.03,0.84,0.0,0.0,0.0
1752855120071,168.0,-65.0,-12.0,-8.0,2.0,7.0,1.1,0.9,2.5,-0.09,-0.54,-0.0,0.84,0.0,0.0,0.0
1752855120114,162.0,-66.0,-10.0,-7.0,1.0,8.0,1.6,0.3,4.2,-0.12,-0.54,-0.03,0.83,0.0,0.0,0.0
1752855120165,157.0,-66.0,-9.0,-7.0,4.0,6.0,1.9,4.1,1.4,-0.16,-0.55,-0.06,0.82,0.0,0.0,0.0
1752855120199,152.0,-67.0,-9.0,-7.0,5.0,5.0,2.2,4.8,0.8,-0.2,-0.54,-0.1,0.81,0.0,0.0,0.0
1752855120240,147.0,-67.0,-10.0,-7.0,8.0,4.0,2.0,6.8,-0.1,-0.24,-0.54,-0.12,0.8,0.0,0.0,0.0
1752855120283,142.0,-68.0,-12.0,-7.0,8.0,3.0,1.8,7.3,0.3,-0.27,-0.55,-0.14,0.78,0.0,0.0,0.0
1752855120318,141.0,-69.0,-15.0,-8.0,7.0,5.0,1.6,6.0,2.1,-0.28,-0.55,-0.14,0.77,0.0,0.0,0.0
1752855120358,142.0,-70.0,-17.0,-8.0,5.0,6.0,1.6,4.1,2.7,-0.27,-0.56,-0.13,0.77,0.0,0.0,0.0
1752855120401,145.0,-70.0,-15.0,-8.0,5.0,5.0,1.6,4.2,1.9,-0.25,-0.56,-0.12,0.78,0.0,0.0,0.0
1752855120552,149.0,-69.0,-13.0,-8.0,-0.0,6.0,0.4,-1.1,2.3,-0.22,-0.56,-0.11,0.79,0.0,0.0,0.0
1752855120583,165.0,-65.0,-16.0,-9.0,-2.0,6.0,-0.1,-3.7,2.1,-0.11,-0.55,-0.0,0.83,0.0,0.0,0.0
1752855120620,168.0,-64.0,-21.0,-10.0,-4.0,6.0,-1.4,-7.3,1.1,-0.09,-0.54,0.04,0.83,0.0,0.0,0.0
1752855120661,170.0,-64.0,-25.0,-11.0,-9.0,5.0,-2.2,-10.7,0.9,-0.07,-0.54,0.06,0.83,0.0,0.0,0.0
1752855120807,165.0,-64.0,-21.0,-9.0,-2.0,7.0,-0.5,-3.5,2.5,-0.11,-0.54,0.03,0.83,0.0,0.0,0.0
1752855120943,161.0,-64.0,-18.0,-7.0,7.0,6.0,1.5,6.1,2.3,-0.14,-0.54,-0.01,0.83,0.0,0.0,0.0
1752855120991,142.0,-67.0,-11.0,-7.0,9.0,5.0,2.3,7.8,1.3,-0.27,-0.53,-0.14,0.79,0.0,0.0,0.0
1752855121025,137.0,-67.0,-11.0,-7.0,10.0,5.0,2.4,10.0,1.6,-0.3,-0.54,-0.16,0.77,0.0,0.0,0.0
1752855121062,135.0,-69.0,-13.0,-6.0,10.0,5.0,2.8,9.0,1.9,-0.32,-0.54,-0.17,0.76,0.0,0.0,0.0
1752855121111,135.0,-70.0,-16.0,-7.0,8.0,6.0,2.3,7.0,2.4,-0.32,-0.55,-0.17,0.75,0.0,0.0,0.0
1752855121161,136.0,-70.0,-18.0,-8.0,4.0,7.0,1.6,3.3,4.0,-0.3,-0.56,-0.15,0.75,0.0,0.0,0.0
1752855121181,139.0,-70.0,-19.0,-8.0,4.0,6.0,1.4,2.6,2.6,-0.28,-0.57,-0.14,0.76,0.0,0.0,0.0
1752855121219,143.0,-69.0,-18.0,-7.0,2.0,5.0,1.7,1.2,1.7,-0.26,-0.56,-0.12,0.78,0.0,0.0,0.0
1752855121259,147.0,-68.0,-19.0,-8.0,2.0,5.0,0.8,0.2,2.1,-0.23,-0.56,-0.09,0.79,0.0,0.0,0.0
1752855121407,153.0,-66.0,-21.0,-10.0,-3.0,5.0,-0.8,-4.8,1.2,-0.2,-0.56,-0.05,0.8,0.0,0.0,0.0
1752855121560,165.0,-64.0,-29.0,-10.0,-4.0,4.0,-1.2,-5.6,0.1,-0.11,-0.55,0.05,0.82,0.0,0.0,0.0
1752855121584,170.0,-64.0,-23.0,-9.0,-2.0,3.0,-0.6,-3.0,-0.6,-0.07,-0.54,0.06,0.84,0.0,0.0,0.0
1752855121620,170.0,-64.0,-19.0,-9.0,-1.0,4.0,-0.2,-2.7,1.0,-0.08,-0.54,0.04,0.84,0.0,0.0,0.0
1752855121660,168.0,-65.0,-18.0,-9.0,-1.0,6.0,-0.1,-1.9,1.8,-0.09,-0.55,0.02,0.83,0.0,0.0,0.0
1752855121809,155.0,-66.0,-11.0,-7.0,0.0,5.0,1.7,-0.8,1.1,-0.17,-0.55,-0.07,0.82,0.0,0.0,0.0
1752855121870,150.0,-66.0,-9.0,-9.0,3.0,8.0,0.3,2.0,3.8,-0.21,-0.54,-0.1,0.81,0.0,0.0,0.0
1752855121897,146.0,-66.0,-6.0,-8.0,3.0,5.0,0.7,2.3,1.3,-0.24,-0.53,-0.13,0.8,0.0,0.0,0.0
1752855121942,142.0,-66.0,-5.0,-8.0,4.0,6.0,0.7,4.4,1.6,-0.27,-0.52,-0.16,0.79,0.0,0.0,0.0
1752855121971,138.0,-65.0,-4.0,-8.0,6.0,5.0,0.8,6.3,0.5,-0.3,-0.51,-0.17,0.79,0.0,0.0,0.0
1752855122120,130.0,-67.0,-14.0,-7.0,5.0,6.0,1.8,3.8,2.8,-0.32,-0.51,-0.19,0.78,0.0,0.0,0.0
1752855122155,130.0,-67.0,-20.0,-8.0,4.0,7.0,1.2,2.3,3.3,-0.35,-0.54,-0.16,0.75,0.0,0.0,0.0
1752855122210,132.0,-67.0,-22.0,-8.0,3.0,6.0,1.4,1.3,2.3,-0.34,-0.54,-0.15,0.75,0.0,0.0,0.0
1752855122241,134.0,-66.0,-23.0,-8.0,2.0,6.0,0.8,0.5,2.5,-0.32,-0.54,-0.12,0.77,0.0,0.0,0.0
1752855122274,138.0,-65.0,-22.0,-8.0,1.0,6.0,1.2,-0.4,2.0,-0.3,-0.54,-0.1,0.78,0.0,0.0,0.0
1752855122312,143.0,-63.0,-22.0,-8.0,1.0,6.0,0.9,-1.1,1.9,-0.26,-0.54,-0.07,0.8,0.0,0.0,0.0
1752855122363,150.0,-62.0,-22.0,-8.0,-1.0,6.0,0.2,-3.0,1.1,-0.23,-0.53,-0.04,0.82,0.0,0.0,0.0
1752855122498,155.0,-60.0,-23.0,-10.0,-2.0,5.0,-1.2,-3.7,0.0,-0.2,-0.52,-0.01,0.83,0.0,0.0,0.0
1752855122548,165.0,-59.0,-20.0,-9.0,-1.0,4.0,-0.6,-2.4,-0.3,-0.11,-0.5,0.04,0.86,0.0,0.0,0.0
1752855122582,167.0,-59.0,-19.0,-9.0,-0.0,5.0,-0.5,-1.6,0.0,-0.1,-0.51,0.04,0.86,0.0,0.0,0.0
1752855122814,168.0,-60.0,-18.0,-8.0,3.0,4.0,0.3,2.4,0.0,-0.09,-0.51,0.04,0.86,0.0,0.0,0.0
1752855122866,174.0,-62.0,-7.0,-8.0,2.0,5.0,0.1,1.9,1.0,-0.05,-0.52,0.0,0.85,0.0,0.0,0.0
1752855122903,173.0,-62.0,-7.0,-9.0,2.0,5.0,0.1,1.4,0.4,-0.05,-0.52,0.0,0.85,0.0,0.0,0.0
1752855123052,162.0,-58.0,-6.0,-8.0,1.0,8.0,0.1,0.8,2.3,-0.13,-0.49,-0.03,0.86,0.0,0.0,0.0
1752855123090,155.0,-54.0,2.0,-8.0,1.0,7.0,-0.5,1.5,-0.7,-0.19,-0.44,-0.11,0.87,0.0,0.0,0.0
1752855123141,149.0,-50.0,10.0,-6.0,0.0,4.0,0.7,2.6,-3.5,-0.24,-0.39,-0.17,0.87,0.0,0.0,0.0
1752855123171,144.0,-45.0,14.0,-6.0,1.0,3.0,1.1,2.6,-4.2,-0.28,-0.34,-0.21,0.87,0.0,0.0,0.0
1752855123221,140.0,-42.0,14.0,-7.0,-3.0,5.0,0.1,-0.8,-2.3,-0.31,-0.31,-0.22,0.87,0.0,0.0,0.0
1752855123260,138.0,-42.0,11.0,-7.0,-4.0,8.0,-0.3,-3.0,0.8,-0.33,-0.3,-0.21,0.87,0.0,0.0,0.0
1752855123410,136.0,-41.0,9.0,-7.0,-2.0,7.0,-0.4,-0.7,0.1,-0.35,-0.3,-0.19,0.86,0.0,0.0,0.0
1752855123556,154.0,-47.0,7.0,-7.0,-2.0,8.0,0.1,-0.8,1.6,-0.33,-0.33,-0.18,0.87,0.0,0.0,0.0
1752855123577,160.0,-47.0,13.0,-7.0,-2.0,6.0,-0.6,1.3,0.2,-0.16,-0.38,-0.15,0.9,0.0,0.0,0.0
1752855123720,165.0,-47.0,23.0,-6.0,-4.0,8.0,-0.0,1.1,2.4,-0.12,-0.38,-0.2,0.9,0.0,0.0,0.0
1752855123777,172.0,-40.0,44.0,-6.0,-4.0,5.0,0.0,1.3,-1.0,-0.06,-0.35,-0.32,0.88,0.0,0.0,0.0
1752855124128,138.0,-41.0,36.0,-6.0,-5.0,6.0,0.1,-0.3,-0.2,-0.31,-0.26,-0.36,0.84,0.0,0.0,0.0
1752855124166,135.0,-42.0,35.0,-7.0,-4.0,6.0,-0.2,-0.3,-0.1,-0.34,-0.26,-0.36,0.83,0.0,0.0,0.0
1752855124213,133.0,-43.0,34.0,-7.0,-5.0,7.0,0.2,-1.2,1.0,-0.36,-0.26,-0.36,0.82,0.0,0.0,0.0
1752855124347,136.0,-41.0,37.0,-6.0,-4.0,6.0,0.3,0.6,0.2,-0.36,-0.26,-0.36,0.82,0.0,0.0,0.0
1752855124384,139.0,-40.0,40.0,-6.0,-4.0,6.0,0.4,1.0,0.7,-0.31,-0.24,-0.38,0.83,0.0,0.0,0.0
1752855124434,142.0,-38.0,43.0,-6.0,-4.0,6.0,0.4,1.3,0.1,-0.29,-0.23,-0.39,0.84,0.0,0.0,0.0
1752855124467,144.0,-37.0,45.0,-6.0,-5.0,7.0,0.3,0.6,1.0,-0.27,-0.23,-0.41,0.84,0.0,0.0,0.0
1752855124514,146.0,-36.0,46.0,-6.0,-6.0,6.0,-0.1,-0.4,0.4,-0.26,-0.22,-0.42,0.84,0.0,0.0,0.0
1752855124550,147.0,-36.0,48.0,-6.0,-7.0,7.0,-0.5,-0.9,1.9,-0.25,-0.22,-0.42,0.84,0.0,0.0,0.0
1752855124584,149.0,-35.0,50.0,-6.0,-7.0,6.0,-0.3,-1.0,1.0,-0.24,-0.22,-0.43,0.84,0.0,0.0,0.0
1752855124626,149.0,-35.0,50.0,-6.0,-6.0,6.0,0.0,-0.2,0.4,-0.23,-0.22,-0.43,0.84,0.0,0.0,0.0
1752855124669,148.0,-36.0,51.0,-5.0,-5.0,4.0,0.5,1.2,-0.5,-0.24,-0.22,-0.44,0.84,0.0,0.0,0.0
1752855124710,146.0,-38.0,53.0,-6.0,-5.0,4.0,0.3,1.3,-0.8,-0.25,-0.23,-0.45,0.82,0.0,0.0,0.0
1752855124749,143.0,-41.0,56.0,-6.0,-6.0,4.0,-0.1,0.2,0.4,-0.27,-0.25,-0.47,0.8,0.0,0.0,0.0
1752855124785,139.0,-44.0,59.0,-7.0,-5.0,3.0,0.0,0.6,-0.0,-0.29,-0.27,-0.5,0.77,0.0,0.0,0.0
1752855124835,133.0,-49.0,64.0,-8.0,-6.0,3.0,-0.4,-0.5,0.5,-0.32,-0.28,-0.52,0.74,0.0,0.0,0.0
1752855124869,130.0,-51.0,67.0,-8.0,-6.0,3.0,-0.5,-0.5,0.8,-0.33,-0.29,-0.54,0.72,0.0,0.0,0.0
1752855124916,129.0,-52.0,69.0,-8.0,-6.0,4.0,-0.1,-0.4,1.9,-0.34,-0.3,-0.55,0.7,0.0,0.0,0.0
1752855125153,146.0,-46.0,51.0,-7.0,-5.0,4.0,0.5,0.1,-0.4,-0.34,-0.3,-0.56,0.7,0.0,0.0,0.0
1752855125186,152.0,-45.0,38.0,-6.0,-4.0,7.0,1.3,0.3,1.3,-0.22,-0.32,-0.36,0.84,0.0,0.0,0.0
1752855125236,158.0,-44.0,24.0,-6.0,-1.0,7.0,0.5,1.2,0.2,-0.18,-0.34,-0.26,0.88,0.0,0.0,0.0
1752855125371,162.0,-44.0,9.0,-7.0,5.0,5.0,0.2,0.8,-1.3,-0.16,-0.36,-0.15,0.91,0.0,0.0,0.0
1752855125420,176.0,-46.0,-56.0,-7.0,6.0,3.0,-0.2,1.2,1.2,-0.03,-0.44,0.31,0.84,0.0,0.0,0.0
1752855125470,179.0,-46.0,-70.0,-7.0,7.0,2.0,0.3,0.1,0.8,-0.01,-0.46,0.41,0.79,0.0,0.0,0.0
1752855125546,183.0,-45.0,-84.0,-8.0,9.0,2.0,-0.8,2.1,1.9,0.02,-0.47,0.49,0.73,0.0,0.0,0.0
1752855125546,184.0,-44.0,-92.0,-7.0,7.0,1.0,-0.0,-0.2,1.0,0.02,-0.48,0.53,0.7,0.0,0.0,0.0
1752855125595,185.0,-42.0,-99.0,-7.0,7.0,-1.0,0.0,0.2,0.3,0.03,-0.48,0.57,0.66,0.0,0.0,0.0
1752855125616,184.0,-41.0,-103.0,-6.0,6.0,-2.0,0.6,-1.1,0.2,0.02,-0.48,0.59,0.65,0.0,0.0,0.0
1752855125662,184.0,-40.0,-105.0,-6.0,7.0,-1.0,0.3,0.0,0.8,0.02,-0.49,0.6,0.63,0.0,0.0,0.0
1752855125711,182.0,-39.0,-106.0,-6.0,7.0,-1.0,0.4,-0.0,0.6,0.01,-0.49,0.61,0.63,0.0,0.0,0.0
1752855125758,182.0,-39.0,-107.0,-6.0,7.0,-2.0,0.3,-0.1,0.5,0.01,-0.49,0.61,0.62,0.0,0.0,0.0
1752855125795,181.0,-39.0,-105.0,-6.0,7.0,-1.0,0.3,-0.0,0.5,0.0,-0.49,0.6,0.63,0.0,0.0,0.0
1752855125828,180.0,-39.0,-104.0,-6.0,7.0,-1.0,0.0,-0.1,0.8,0.0,-0.49,0.59,0.63,0.0,0.0,0.0
1752855125878,178.0,-40.0,-100.0,-6.0,7.0,0.0,0.2,-0.6,1.2,-0.01,-0.49,0.58,0.65,0.0,0.0,0.0
1752855125912,177.0,-40.0,-96.0,-6.0,7.0,1.0,0.2,-0.9,1.4,-0.02,-0.49,0.55,0.68,0.0,0.0,0.0
1752855125953,173.0,-42.0,-87.0,-6.0,7.0,3.0,-0.0,-0.0,2.5,-0.04,-0.49,0.49,0.72,0.0,0.0,0.0
1752855125995,168.0,-43.0,-72.0,-7.0,8.0,5.0,-0.5,2.1,2.1,-0.08,-0.48,0.4,0.78,0.0,0.0,0.0
1752855126025,163.0,-44.0,-53.0,-7.0,7.0,6.0,0.8,1.2,0.3,-0.12,-0.46,0.27,0.84,0.0,0.0,0.0
1752855126076,157.0,-44.0,-28.0,-6.0,4.0,6.0,0.7,1.4,-0.6,-0.17,-0.42,0.14,0.88,0.0,0.0,0.0
1752855126113,154.0,-44.0,-15.0,-6.0,1.0,6.0,0.4,-0.2,-0.9,-0.2,-0.39,0.02,0.9,0.0,0.0,0.0
1752855126147,151.0,-44.0,2.0,-7.0,-1.0,7.0,-0.3,-0.8,0.9,-0.24,-0.36,-0.1,0.9,0.0,0.0,0.0
1752855126193,148.0,-44.0,15.0,-7.0,-3.0,8.0,-0.2,-1.1,0.7,-0.25,-0.33,-0.2,0.89,0.0,0.0,0.0
1752855126227,145.0,-43.0,30.0,-7.0,-5.0,5.0,0.2,-0.5,-0.7,-0.27,-0.3,-0.31,0.86,0.0,0.0,0.0
1752855126277,143.0,-42.0,48.0,-6.0,-7.0,5.0,0.7,-1.6,0.4,-0.28,-0.27,-0.4,0.83,0.0,0.0,0.0
1752855126527,141.0,-29.0,100.0,-4.0,-6.0,-1.0,0.3,1.7,1.2,-0.22,-0.13,-0.75,0.61,0.0,0.0,0.0
1752855126661,144.0,-26.0,101.0,-4.0,-8.0,-2.0,0.1,0.1,0.1,-0.2,-0.12,-0.76,0.61,0.0,0.0,0.0
1752855126699,144.0,-26.0,101.0,-5.0,-8.0,-1.0,-0.2,0.3,0.5,-0.2,-0.12,-0.76,0.61,0.0,0.0,0.0
1752855126740,144.0,-27.0,100.0,-4.0,-8.0,-1.0,-0.0,0.7,0.5,-0.2,-0.12,-0.75,0.62,0.0,0.0,0.0
1752855126779,143.0,-27.0,99.0,-5.0,-9.0,-1.0,-0.2,-0.0,0.2,-0.21,-0.12,-0.75,0.62,0.0,0.0,0.0
1752855126823,143.0,-28.0,97.0,-5.0,-8.0,-0.0,-0.1,0.6,0.8,-0.21,-0.12,-0.74,0.63,0.0,0.0,0.0
1752855126866,143.0,-28.0,94.0,-5.0,-8.0,1.0,0.1,0.4,1.3,-0.22,-0.13,-0.72,0.65,0.0,0.0,0.0
1752855126916,144.0,-29.0,88.0,-5.0,-8.0,1.0,0.1,0.5,0.3,-0.22,-0.14,-0.68,0.68,0.0,0.0,0.0
1752855126966,145.0,-31.0,80.0,-5.0,-8.0,2.0,0.0,0.3,0.0,-0.23,-0.15,-0.65,0.71,0.0,0.0,0.0
1752855126996,146.0,-32.0,72.0,-5.0,-7.0,4.0,0.2,0.4,1.4,-0.23,-0.16,-0.6,0.75,0.0,0.0,0.0
1752855127032,147.0,-33.0,63.0,-6.0,-7.0,4.0,-0.1,0.2,-0.3,-0.23,-0.19,-0.54,0.79,0.0,0.0,0.0
1752855127073,148.0,-35.0,54.0,-5.0,-6.0,6.0,0.2,0.3,0.7,-0.23,-0.21,-0.48,0.82,0.0,0.0,0.0
1752855127116,150.0,-36.0,47.0,-5.0,-6.0,6.0,0.3,-0.3,0.6,-0.23,-0.23,-0.41,0.85,0.0,0.0,0.0
1752855127157,151.0,-37.0,39.0,-6.0,-5.0,6.0,0.3,-0.1,-0.1,-0.23,-0.25,-0.36,0.87,0.0,0.0,0.0
1752855127199,152.0,-38.0,30.0,-6.0,-4.0,7.0,0.5,-0.1,0.5,-0.22,-0.27,-0.3,0.89,0.0,0.0,0.0
1752855127233,153.0,-39.0,23.0,-6.0,-3.0,8.0,0.0,0.1,1.0,-0.22,-0.29,-0.25,0.9,0.0,0.0,0.0
1752855127283,154.0,-40.0,16.0,-6.0,-2.0,7.0,0.4,-0.0,0.1,-0.21,-0.31,-0.2,0.91,0.0,0.0,0.0
1752855127320,155.0,-41.0,9.0,-6.0,-1.0,8.0,0.0,-0.2,0.8,-0.2,-0.32,-0.15,0.91,0.0,0.0,0.0
1752855127471,158.0,-42.0,-10.0,-7.0,1.0,7.0,-0.0,-0.2,0.4,-0.17,-0.37,-0.0,0.91,0.0,0.0,0.0
1752855127504,160.0,-43.0,-14.0,-6.0,2.0,7.0,0.0,0.4,0.4,-0.16,-0.38,0.03,0.91,0.0,0.0,0.0
1752855127560,161.0,-43.0,-21.0,-7.0,3.0,7.0,0.2,0.1,0.0,-0.15,-0.39,0.08,0.91,0.0,0.0,0.0
1752855127581,163.0,-44.0,-26.0,-6.0,3.0,6.0,0.4,0.0,0.0,-0.14,-0.4,0.11,0.9,0.0,0.0,0.0
1752855127623,166.0,-44.0,-34.0,-7.0,4.0,6.0,0.1,0.2,0.3,-0.12,-0.41,0.16,0.89,0.0,0.0,0.0
1752855127663,167.0,-45.0,-38.0,-7.0,5.0,5.0,0.2,0.3,0.2,-0.1,-0.42,0.2,0.88,0.0,0.0,0.0
1752855127703,169.0,-45.0,-44.0,-7.0,5.0,5.0,0.1,0.1,0.4,-0.08,-0.43,0.24,0.87,0.0,0.0,0.0
1752855127753,171.0,-46.0,-49.0,-7.0,5.0,5.0,-0.0,0.4,0.1,-0.07,-0.44,0.28,0.85,0.0,0.0,0.0
1752855127780,173.0,-46.0,-54.0,-7.0,6.0,4.0,0.3,0.2,0.0,-0.05,-0.45,0.31,0.84,0.0,0.0,0.0
1752855127840,176.0,-46.0,-62.0,-7.0,7.0,4.0,-0.1,0.5,0.9,-0.03,-0.46,0.35,0.82,0.0,0.0,0.0
1752855127875,178.0,-46.0,-69.0,-7.0,6.0,3.0,0.2,0.0,0.3,-0.02,-0.46,0.39,0.8,0.0,0.0,0.0
1752855127917,179.0,-46.0,-74.0,-7.0,7.0,2.0,0.3,0.3,0.2,-0.01,-0.47,0.43,0.77,0.0,0.0,0.0
1752855127957,181.0,-46.0,-80.0,-7.0,7.0,1.0,0.2,0.1,0.2,0.0,-0.47,0.46,0.75,0.0,0.0,0.0
1752855127995,183.0,-45.0,-87.0,-7.0,7.0,0.0,0.5,0.4,0.1,0.02,-0.48,0.5,0.72,0.0,0.0,0.0
1752855128134,187.0,-42.0,-105.0,-6.0,7.0,-1.0,0.4,-0.5,0.8,0.04,-0.49,0.6,0.64,0.0,0.0,0.0
1752855128281,184.0,-41.0,-105.0,-6.0,7.0,-1.0,0.1,0.1,0.5,0.02,-0.5,0.6,0.63,0.0,0.0,0.0
1752855128431,182.0,-43.0,-100.0,-6.0,7.0,-1.0,0.4,-0.5,0.3,0.02,-0.5,0.58,0.64,0.0,0.0,0.0
1752855128474,181.0,-44.0,-98.0,-7.0,7.0,-0.0,0.2,-0.1,1.0,0.01,-0.51,0.54,0.67,0.0,0.0,0.0
1752855128620,180.0,-52.0,-92.0,-8.0,7.0,2.0,-0.5,0.8,1.7,0.0,-0.56,0.44,0.7,0.0,0.0,0.0
1752855128663,181.0,-54.0,-92.0,-8.0,6.0,1.0,-0.1,0.4,0.9,0.01,-0.57,0.43,0.7,0.0,0.0,0.0
1752855128699,182.0,-56.0,-92.0,-8.0,5.0,1.0,0.1,0.1,0.8,0.01,-0.59,0.41,0.7,0.0,0.0,0.0
1752855128741,183.0,-60.0,-91.0,-9.0,5.0,1.0,-0.1,-0.1,0.8,0.02,-0.6,0.38,0.7,0.0,0.0,0.0
1752855128780,185.0,-62.0,-91.0,-9.0,5.0,1.0,-0.1,0.1,1.3,0.03,-0.61,0.36,0.7,0.0,0.0,0.0
1752855128826,186.0,-65.0,-91.0,-9.0,5.0,1.0,-0.3,0.6,0.7,0.04,-0.62,0.34,0.7,0.0,0.0,0.0
1752855128960,195.0,-74.0,-96.0,-9.0,3.0,0.0,0.4,0.4,0.3,0.05,-0.64,0.31,0.7,0.0,0.0,0.0
1752855128994,198.0,-76.0,-99.0,-9.0,2.0,-0.0,0.3,-0.0,0.4,0.11,-0.66,0.28,0.68,0.0,0.0,0.0
1752855129038,203.0,-79.0,-106.0,-9.0,1.0,1.0,0.2,-0.4,1.1,0.13,-0.67,0.28,0.68,0.0,0.0,0.0
1752855129081,207.0,-80.0,-112.0,-9.0,1.0,0.0,0.3,-0.7,1.1,0.15,-0.67,0.28,0.67,0.0,0.0,0.0
1752855129121,209.0,-82.0,-116.0,-10.0,1.0,1.0,0.1,-0.2,1.3,0.17,-0.68,0.27,0.66,0.0,0.0,0.0
1752855129164,211.0,-83.0,-122.0,-9.0,1.0,-0.0,0.5,-0.5,0.2,0.18,-0.68,0.27,0.66,0.0,0.0,0.0
1752855129197,213.0,-85.0,-176.0,-10.0,1.0,0.0,0.2,-0.1,1.0,0.19,-0.68,0.26,0.66,0.0,0.0,0.0
1752855129238,215.0,-85.0,-177.0,-9.0,-1.0,0.0,0.6,-1.1,0.7,0.2,-0.68,0.26,0.66,0.0,0.0,0.0
1752855129288,215.0,-86.0,-177.0,-9.0,0.0,-0.0,0.7,-0.3,-0.1,0.21,-0.68,0.25,0.66,0.0,0.0,0.0
1752855129431,208.0,-83.0,-93.0,-10.0,1.0,0.0,-0.5,0.1,0.5,0.17,-0.66,0.25,0.68,0.0,0.0,0.0
1752855129478,206.0,-81.0,-90.0,-10.0,1.0,1.0,0.0,-0.9,0.8,0.16,-0.65,0.27,0.69,0.0,0.0,0.0
1752855129615,192.0,-71.0,-69.0,-8.0,2.0,2.0,0.9,-0.4,0.8,0.14,-0.64,0.28,0.7,0.0,0.0,0.0
1752855129756,171.0,-62.0,-21.0,-8.0,2.0,5.0,0.9,0.8,1.0,-0.07,-0.53,0.06,0.84,0.0,0.0,0.0
1752855129797,166.0,-60.0,-5.0,-8.0,1.0,6.0,0.3,1.0,0.5,-0.11,-0.5,-0.03,0.86,0.0,0.0,0.0
1752855129940,152.0,-50.0,41.0,-8.0,-5.0,6.0,-0.1,-0.8,1.0,-0.15,-0.46,-0.13,0.86,0.0,0.0,0.0
1752855129981,150.0,-48.0,51.0,-7.0,-6.0,5.0,0.1,-0.3,0.9,-0.21,-0.35,-0.4,0.82,0.0,0.0,0.0
1752855130022,150.0,-46.0,56.0,-7.0,-6.0,4.0,0.2,-0.2,0.8,-0.22,-0.33,-0.45,0.8,0.0,0.0,0.0
1752855130070,148.0,-44.0,65.0,-6.0,-6.0,3.0,0.2,0.2,0.7,-0.22,-0.3,-0.5,0.78,0.0,0.0,0.0
1752855130108,147.0,-42.0,71.0,-7.0,-7.0,3.0,0.1,-0.1,0.3,-0.22,-0.28,-0.55,0.76,0.0,0.0,0.0
1752855130154,146.0,-40.0,78.0,-6.0,-8.0,2.0,-0.0,-0.5,0.7,-0.22,-0.26,-0.59,0.73,0.0,0.0,0.0
1752855130188,146.0,-38.0,82.0,-6.0,-8.0,1.0,0.1,-0.1,0.4,-0.22,-0.25,-0.62,0.71,0.0,0.0,0.0
1752855130240,146.0,-36.0,86.0,-6.0,-8.0,1.0,-0.1,0.1,0.6,-0.21,-0.23,-0.64,0.7,0.0,0.0,0.0
1752855130271,146.0,-35.0,89.0,-6.0,-8.0,2.0,0.0,-0.3,1.5,-0.21,-0.22,-0.67,0.68,0.0,0.0,0.0
1752855130415,148.0,-29.0,95.0,-4.0,-8.0,-0.0,0.7,0.1,0.5,-0.2,-0.2,-0.68,0.67,0.0,0.0,0.0
1752855130449,149.0,-28.0,96.0,-4.0,-8.0,-1.0,0.3,0.7,0.4,-0.18,-0.16,-0.72,0.65,0.0,0.0,0.0
1752855130489,149.0,-27.0,97.0,-4.0,-8.0,-1.0,0.3,0.2,0.3,-0.18,-0.14,-0.73,0.64,0.0,0.0,0.0
1752855130638,149.0,-25.0,101.0,-4.0,-9.0,-1.0,0.2,0.1,0.6,-0.17,-0.13,-0.75,0.62,0.0,0.0,0.0
1752855130672,149.0,-25.0,101.0,-4.0,-9.0,-1.0,0.3,0.1,0.6,-0.17,-0.13,-0.75,0.62,0.0,0.0,0.0
1752855130724,149.0,-25.0,100.0,-4.0,-8.0,-1.0,0.2,0.3,0.1,-0.18,-0.13,-0.75,0.62,0.0,0.0,0.0
1752855130866,150.0,-26.0,92.0,-4.0,-8.0,1.0,0.3,0.0,0.9,-0.18,-0.14,-0.7,0.67,0.0,0.0,0.0
1752855130908,151.0,-27.0,87.0,-4.0,-8.0,1.0,0.2,0.3,0.3,-0.18,-0.15,-0.68,0.7,0.0,0.0,0.0
1752855130942,153.0,-28.0,83.0,-5.0,-8.0,2.0,0.0,0.9,1.0,-0.18,-0.16,-0.66,0.72,0.0,0.0,0.0
1752855130982,154.0,-29.0,77.0,-4.0,-9.0,3.0,0.4,-0.6,0.6,-0.18,-0.17,-0.62,0.75,0.0,0.0,0.0
1752855131026,154.0,-29.0,74.0,-5.0,-7.0,3.0,0.2,1.1,0.1,-0.17,-0.18,-0.59,0.77,0.0,0.0,0.0
1752855131073,156.0,-30.0,66.0,-5.0,-8.0,5.0,0.4,-0.2,0.7,-0.17,-0.19,-0.54,0.8,0.0,0.0,0.0
1752855131317,161.0,-36.0,29.0,-6.0,-4.0,7.0,0.2,-0.1,-0.0,-0.15,-0.27,-0.27,0.91,0.0,0.0,0.0
1752855131357,162.0,-37.0,22.0,-6.0,-3.0,8.0,0.2,-0.2,1.0,-0.14,-0.29,-0.21,0.92,0.0,0.0,0.0
1752855131393,163.0,-38.0,16.0,-6.0,-2.0,8.0,0.3,-0.1,0.1,-0.14,-0.3,-0.16,0.93,0.0,0.0,0.0
1752855131443,164.0,-38.0,9.0,-6.0,-1.0,8.0,0.2,0.2,0.1,-0.13,-0.31,-0.12,0.93,0.0,0.0,0.0
1752855131474,165.0,-39.0,4.0,-6.0,-0.0,9.0,0.2,-0.2,1.0,-0.12,-0.33,-0.07,0.94,0.0,0.0,0.0
1752855131518,166.0,-39.0,-3.0,-6.0,1.0,7.0,0.3,0.2,0.0,-0.11,-0.33,-0.03,0.94,0.0,0.0,0.0
1752855131568,168.0,-40.0,-10.0,-6.0,2.0,8.0,0.3,-0.1,0.6,-0.1,-0.35,0.04,0.93,0.0,0.0,0.0
1752855131601,169.0,-40.0,-16.0,-6.0,2.0,7.0,0.3,-0.1,0.3,-0.09,-0.36,0.08,0.93,0.0,0.0,0.0
1752855131646,170.0,-40.0,-24.0,-6.0,3.0,7.0,0.2,0.2,0.5,-0.08,-0.36,0.13,0.92,0.0,0.0,0.0
1752855131683,171.0,-40.0,-30.0,-6.0,4.0,7.0,0.0,0.2,0.6,-0.08,-0.37,0.17,0.91,0.0,0.0,0.0
1752855131725,171.0,-40.0,-34.0,-6.0,5.0,6.0,0.2,0.3,0.1,-0.07,-0.37,0.21,0.9,0.0,0.0,0.0
1752855131771,172.0,-40.0,-41.0,-6.0,6.0,6.0,0.0,0.4,0.7,-0.07,-0.38,0.25,0.89,0.0,0.0,0.0
1752855131815,172.0,-39.0,-46.0,-6.0,6.0,5.0,0.3,-0.3,0.1,-0.06,-0.38,0.29,0.87,0.0,0.0,0.0
1752855131851,172.0,-39.0,-53.0,-6.0,6.0,6.0,0.1,0.1,0.9,-0.06,-0.39,0.34,0.86,0.0,0.0,0.0
1752855131891,172.0,-38.0,-57.0,-6.0,7.0,4.0,0.3,0.0,-0.6,-0.06,-0.39,0.36,0.84,0.0,0.0,0.0
1752855131943,173.0,-37.0,-64.0,-6.0,7.0,4.0,0.2,0.0,0.4,-0.05,-0.4,0.4,0.83,0.0,0.0,0.0
1752855131981,173.0,-37.0,-68.0,-6.0,8.0,2.0,0.0,0.5,-0.3,-0.05,-0.4,0.43,0.81,0.0,0.0,0.0
1752855132131,176.0,-34.0,-91.0,-5.0,8.0,1.0,-0.1,0.1,0.9,-0.04,-0.41,0.48,0.78,0.0,0.0,0.0
1752855132166,177.0,-33.0,-97.0,-5.0,7.0,0.0,0.3,-0.4,1.4,-0.02,-0.42,0.61,0.67,0.0,0.0,0.0
1752855132212,177.0,-32.0,-101.0,-5.0,8.0,0.0,-0.2,0.4,1.8,-0.02,-0.42,0.63,0.65,0.0,0.0,0.0
1752855132244,177.0,-32.0,-101.0,-5.0,8.0,-1.0,0.4,-0.5,0.4,-0.02,-0.42,0.64,0.64,0.0,0.0,0.0
1752855132298,177.0,-31.0,-101.0,-5.0,9.0,-1.0,-0.0,0.3,0.1,-0.02,-0.42,0.64,0.64,0.0,0.0,0.0
1752855132332,176.0,-32.0,-100.0,-5.0,8.0,-1.0,0.2,-0.0,-0.0,-0.02,-0.42,0.63,0.65,0.0,0.0,0.0
1752855132479,176.0,-32.0,-98.0,-5.0,9.0,-1.0,0.3,0.6,0.3,-0.02,-0.42,0.63,0.65,0.0,0.0,0.0
1752855132616,173.0,-34.0,-90.0,-5.0,8.0,2.0,0.3,0.4,1.6,-0.04,-0.43,0.56,0.71,0.0,0.0,0.0
1752855132657,170.0,-34.0,-82.0,-5.0,7.0,2.0,0.3,0.2,-0.1,-0.07,-0.42,0.51,0.75,0.0,0.0,0.0
1752855132699,167.0,-35.0,-72.0,-5.0,8.0,2.0,0.5,0.8,-1.3,-0.09,-0.41,0.45,0.79,0.0,0.0,0.0
1752855132750,165.0,-35.0,-63.0,-5.0,7.0,4.0,0.3,-0.2,0.5,-0.1,-0.41,0.4,0.81,0.0,0.0,0.0
1752855132783,163.0,-36.0,-57.0,-6.0,6.0,5.0,0.2,0.1,-0.2,-0.13,-0.4,0.34,0.84,0.0,0.0,0.0
1752855132833,161.0,-36.0,-48.0,-6.0,4.0,7.0,0.3,-1.4,0.8,-0.15,-0.39,0.28,0.87,0.0,0.0,0.0
1752855132880,159.0,-37.0,-38.0,-6.0,4.0,7.0,-0.0,-0.2,0.7,-0.17,-0.38,0.2,0.89,0.0,0.0,0.0
1752855132918,157.0,-38.0,-28.0,-6.0,3.0,7.0,0.2,-0.3,0.4,-0.18,-0.37,0.13,0.9,0.0,0.0,0.0
1752855132958,156.0,-38.0,-21.0,-6.0,3.0,8.0,-0.0,0.1,0.5,-0.19,-0.36,0.08,0.91,0.0,0.0,0.0
1752855133001,155.0,-39.0,-9.0,-6.0,1.0,7.0,0.3,-0.2,-0.0,-0.2,-0.35,0.0,0.92,0.0,0.0,0.0
1752855133048,154.0,-40.0,-2.0,-6.0,-1.0,8.0,0.4,-0.8,0.4,-0.21,-0.34,-0.05,0.92,0.0,0.0,0.0
1752855133288,146.0,-38.0,56.0,-6.0,-7.0,4.0,0.1,-0.8,-0.4,-0.23,-0.3,-0.27,0.89,0.0,0.0,0.0
1752855133338,145.0,-37.0,64.0,-6.0,-8.0,4.0,0.0,-0.5,1.0,-0.25,-0.22,-0.53,0.78,0.0,0.0,0.0
1752855133372,143.0,-36.0,75.0,-6.0,-8.0,2.0,-0.1,0.5,0.8,-0.25,-0.19,-0.6,0.74,0.0,0.0,0.0
1752855133406,142.0,-34.0,83.0,-5.0,-6.0,3.0,0.1,1.5,1.7,-0.24,-0.17,-0.65,0.7,0.0,0.0,0.0
1752855133448,143.0,-32.0,87.0,-4.0,-7.0,1.0,0.8,1.3,0.6,-0.23,-0.16,-0.67,0.69,0.0,0.0,0.0
1752855133515,143.0,-31.0,88.0,-4.0,-7.0,0.0,0.6,1.2,0.3,-0.23,-0.15,-0.68,0.68,0.0,0.0,0.0
1752855133533,144.0,-30.0,88.0,-4.0,-8.0,1.0,0.6,0.1,0.3,-0.22,-0.15,-0.68,0.68,0.0,0.0,0.0
1752855133586,144.0,-30.0,87.0,-4.0,-9.0,1.0,0.4,-0.2,0.1,-0.22,-0.15,-0.68,0.69,0.0,0.0,0.0
1752855133608,144.0,-30.0,87.0,-5.0,-9.0,1.0,0.2,-0.2,0.4,-0.22,-0.14,-0.68,0.69,0.0,0.0,0.0
1752855133647,144.0,-30.0,86.0,-5.0,-8.0,0.0,0.2,0.1,-0.2,-0.22,-0.14,-0.67,0.69,0.0,0.0,0.0
1752855133695,144.0,-30.0,86.0,-5.0,-8.0,1.0,0.3,-0.1,0.0,-0.23,-0.14,-0.67,0.69,0.0,0.0,0.0
1752855133740,144.0,-30.0,84.0,-5.0,-9.0,-0.0,0.2,-0.3,-0.9,-0.23,-0.14,-0.66,0.7,0.0,0.0,0.0
1752855133781,143.0,-30.0,84.0,-5.0,-9.0,0.0,0.3,-0.7,-0.5,-0.23,-0.14,-0.66,0.7,0.0,0.0,0.0
1752855134025,135.0,-30.0,84.0,-4.0,-9.0,1.0,0.7,-0.0,0.5,-0.23,-0.14,-0.66,0.7,0.0,0.0,0.0
1752855134069,133.0,-30.0,84.0,-4.0,-8.0,1.0,0.7,0.3,0.1,-0.3,-0.08,-0.67,0.68,0.0,0.0,0.0
1752855134111,130.0,-30.0,83.0,-4.0,-9.0,1.0,0.6,-0.2,0.7,-0.32,-0.06,-0.67,0.67,0.0,0.0,0.0
1752855134152,126.0,-29.0,82.0,-5.0,-8.0,2.0,0.1,0.2,0.8,-0.34,-0.04,-0.66,0.67,0.0,0.0,0.0
1752855134196,123.0,-29.0,81.0,-4.0,-9.0,2.0,0.6,-0.3,0.6,-0.35,-0.02,-0.66,0.67,0.0,0.0,0.0
1752855134343,115.0,-27.0,77.0,-4.0,-8.0,2.0,0.7,0.3,-0.1,-0.41,0.05,-0.63,0.65,0.0,0.0,0.0
1752855134382,113.0,-26.0,76.0,-4.0,-9.0,3.0,0.1,-0.0,0.7,-0.43,0.07,-0.62,0.65,0.0,0.0,0.0
1752855134433,111.0,-26.0,75.0,-4.0,-8.0,3.0,0.1,0.3,0.2,-0.45,0.09,-0.61,0.65,0.0,0.0,0.0
1752855134566,109.0,-25.0,74.0,-4.0,-8.0,3.0,-0.2,0.1,0.6,-0.46,0.1,-0.6,0.64,0.0,0.0,0.0
1752855134707,108.0,-24.0,72.0,-4.0,-8.0,3.0,0.2,0.1,0.5,-0.47,0.12,-0.59,0.64,0.0,0.0,0.0
1752855134749,111.0,-25.0,72.0,-4.0,-8.0,3.0,0.2,0.1,0.4,-0.45,0.09,-0.59,0.66,0.0,0.0,0.0
1752855134793,113.0,-25.0,72.0,-4.0,-9.0,3.0,0.2,-0.1,0.6,-0.44,0.08,-0.6,0.66,0.0,0.0,0.0
1752855134841,115.0,-25.0,73.0,-4.0,-8.0,3.0,0.4,-0.0,0.0,-0.43,0.07,-0.6,0.67,0.0,0.0,0.0
1752855134875,117.0,-26.0,73.0,-4.0,-8.0,2.0,0.3,0.0,0.1,-0.42,0.05,-0.6,0.68,0.0,0.0,0.0
1752855134913,120.0,-26.0,74.0,-4.0,-8.0,2.0,0.4,0.2,-0.1,-0.4,0.04,-0.61,0.68,0.0,0.0,0.0
1752855134955,122.0,-27.0,74.0,-4.0,-9.0,2.0,0.5,-0.3,-0.4,-0.38,0.02,-0.61,0.69,0.0,0.0,0.0
1752855135003,125.0,-27.0,75.0,-4.0,-8.0,2.0,0.5,0.0,0.0,-0.37,0.0,-0.62,0.7,0.0,0.0,0.0
1752855135358,145.0,-30.0,81.0,-4.0,-9.0,1.0,0.5,-0.1,-0.7,-0.23,-0.14,-0.64,0.72,0.0,0.0,0.0
1752855135408,147.0,-30.0,82.0,-4.0,-9.0,1.0,0.5,-0.1,-0.3,-0.22,-0.15,-0.64,0.72,0.0,0.0,0.0
1752855135635,155.0,-29.0,85.0,-4.0,-9.0,0.0,0.4,0.0,-0.3,-0.2,-0.16,-0.64,0.72,0.0,0.0,0.0
1752855135679,155.0,-29.0,85.0,-4.0,-9.0,1.0,0.3,0.1,-0.0,-0.16,-0.19,-0.66,0.71,0.0,0.0,0.0
1752855135715,155.0,-29.0,85.0,-4.0,-8.0,0.0,0.3,0.1,-0.2,-0.16,-0.19,-0.65,0.71,0.0,0.0,0.0
1752855135752,155.0,-28.0,85.0,-4.0,-8.0,0.0,0.3,0.1,-0.3,-0.16,-0.19,-0.65,0.71,0.0,0.0,0.0
1752855135795,155.0,-28.0,85.0,-4.0,-8.0,1.0,0.3,0.1,-0.0,-0.16,-0.19,-0.65,0.72,0.0,0.0,0.0
1752855135955,153.0,-28.0,84.0,-4.0,-8.0,1.0,0.3,0.2,0.1,-0.16,-0.18,-0.65,0.72,0.0,0.0,0.0
1752855135994,151.0,-28.0,84.0,-4.0,-9.0,1.0,0.2,-0.1,0.2,-0.18,-0.16,-0.65,0.72,0.0,0.0,0.0
1752855136048,150.0,-28.0,84.0,-4.0,-8.0,2.0,0.2,0.3,0.7,-0.19,-0.16,-0.65,0.72,0.0,0.0,0.0
1752855136082,149.0,-28.0,83.0,-4.0,-8.0,1.0,0.4,-0.0,-0.5,-0.2,-0.15,-0.65,0.72,0.0,0.0,0.0
1752855136117,148.0,-28.0,82.0,-4.0,-9.0,1.0,0.1,0.1,0.7,-0.21,-0.14,-0.65,0.72,0.0,0.0,0.0
1752855136168,147.0,-28.0,82.0,-4.0,-8.0,2.0,0.3,0.3,0.1,-0.21,-0.14,-0.65,0.72,0.0,0.0,0.0
1752855136209,145.0,-29.0,82.0,-4.0,-9.0,2.0,0.3,-0.1,0.4,-0.22,-0.13,-0.65,0.71,0.0,0.0,0.0
1752855136250,143.0,-29.0,82.0,-4.0,-8.0,2.0,0.2,0.3,0.3,-0.24,-0.12,-0.65,0.71,0.0,0.0,0.0
1752855136287,142.0,-29.0,81.0,-4.0,-9.0,1.0,0.5,-0.1,-0.4,-0.24,-0.11,-0.65,0.71,0.0,0.0,0.0
1752855136337,141.0,-29.0,81.0,-4.0,-8.0,2.0,0.2,0.3,0.4,-0.25,-0.11,-0.65,0.71,0.0,0.0,0.0
1752855136370,139.0,-29.0,80.0,-4.0,-8.0,1.0,0.4,0.0,-0.2,-0.26,-0.1,-0.65,0.71,0.0,0.0,0.0
1752855136404,138.0,-28.0,80.0,-4.0,-8.0,2.0,0.4,-0.1,-0.1,-0.27,-0.09,-0.65,0.71,0.0,0.0,0.0
1752855136557,131.0,-27.0,78.0,-4.0,-9.0,1.0,0.4,-0.2,0.2,-0.31,-0.04,-0.64,0.7,0.0,0.0,0.0
1752855136605,128.0,-27.0,78.0,-4.0,-8.0,2.0,0.3,0.6,0.4,-0.33,-0.02,-0.64,0.7,0.0,0.0,0.0
1752855136642,126.0,-27.0,77.0,-4.0,-8.0,2.0,0.8,0.1,-0.3,-0.35,-0.0,-0.63,0.69,0.0,0.0,0.0
1752855136689,122.0,-26.0,75.0,-4.0,-8.0,3.0,0.2,0.4,0.9,-0.37,0.01,-0.62,0.69,0.0,0.0,0.0
1752855136727,119.0,-26.0,73.0,-4.0,-8.0,3.0,0.5,0.2,0.0,-0.4,0.04,-0.61,0.68,0.0,0.0,0.0
1752855136778,115.0,-26.0,71.0,-4.0,-8.0,4.0,0.0,0.2,0.5,-0.43,0.06,-0.59,0.68,0.0,0.0,0.0
1752855136809,110.0,-25.0,68.0,-4.0,-8.0,3.0,0.3,-0.2,-0.1,-0.46,0.08,-0.57,0.67,0.0,0.0,0.0
1752855136847,107.0,-25.0,66.0,-4.0,-8.0,5.0,0.0,0.3,1.0,-0.49,0.09,-0.55,0.67,0.0,0.0,0.0
1752855136898,105.0,-24.0,65.0,-4.0,-8.0,5.0,-0.0,0.2,0.7,-0.51,0.11,-0.54,0.66,0.0,0.0,0.0
1752855137036,102.0,-23.0,61.0,-4.0,-8.0,5.0,0.1,-0.3,1.0,-0.52,0.12,-0.53,0.66,0.0,0.0,0.0
1752855137187,107.0,-23.0,62.0,-4.0,-8.0,5.0,0.1,0.3,0.8,-0.5,0.09,-0.52,0.68,0.0,0.0,0.0
1752855137224,111.0,-24.0,63.0,-4.0,-8.0,4.0,0.1,-0.0,0.4,-0.48,0.08,-0.53,0.69,0.0,0.0,0.0
1752855137262,113.0,-25.0,64.0,-4.0,-8.0,4.0,0.3,-0.1,0.6,-0.46,0.06,-0.55,0.7,0.0,0.0,0.0
1752855137415,126.0,-28.0,71.0,-4.0,-8.0,3.0,0.6,-0.1,0.1,-0.37,-0.02,-0.59,0.72,0.0,0.0,0.0
1752855137462,130.0,-28.0,73.0,-4.0,-9.0,3.0,0.9,-0.3,-0.0,-0.34,-0.04,-0.6,0.72,0.0,0.0,0.0
1752855137503,135.0,-29.0,75.0,-4.0,-8.0,2.0,0.8,-0.0,-0.2,-0.31,-0.07,-0.62,0.72,0.0,0.0,0.0
1752855137545,137.0,-29.0,76.0,-4.0,-8.0,1.0,0.8,0.0,-0.3,-0.28,-0.09,-0.62,0.72,0.0,0.0,0.0
1752855137587,141.0,-29.0,78.0,-4.0,-9.0,1.0,0.7,-0.4,-0.5,-0.26,-0.11,-0.63,0.73,0.0,0.0,0.0
1752855137737,150.0,-29.0,81.0,-4.0,-9.0,0.0,0.4,-0.2,-1.0,-0.2,-0.16,-0.63,0.73,0.0,0.0,0.0
1752855137780,152.0,-29.0,82.0,-4.0,-8.0,1.0,0.3,0.2,-0.5,-0.18,-0.17,-0.64,0.73,0.0,0.0,0.0
1752855137816,153.0,-29.0,82.0,-4.0,-9.0,1.0,0.4,-0.0,-0.3,-0.18,-0.18,-0.64,0.73,0.0,0.0,0.0
1752855137857,153.0,-29.0,82.0,-4.0,-9.0,1.0,0.4,0.0,-0.3,-0.17,-0.18,-0.64,0.73,0.0,0.0,0.0
1752855138009,154.0,-29.0,80.0,-5.0,-8.0,2.0,0.1,0.1,0.3,-0.17,-0.19,-0.62,0.74,0.0,0.0,0.0
1752855138050,155.0,-30.0,76.0,-5.0,-8.0,3.0,-0.1,0.6,0.5,-0.17,-0.19,-0.61,0.75,0.0,0.0,0.0
1752855138091,156.0,-30.0,73.0,-5.0,-8.0,4.0,0.2,-0.0,0.7,-0.17,-0.2,-0.58,0.77,0.0,0.0,0.0
1752855138131,158.0,-30.0,66.0,-5.0,-8.0,5.0,0.2,-0.5,1.4,-0.16,-0.21,-0.53,0.8,0.0,0.0,0.0
1752855138177,159.0,-31.0,59.0,-5.0,-8.0,6.0,0.1,-0.2,0.5,-0.15,-0.22,-0.48,0.83,0.0,0.0,0.0
1752855138218,160.0,-31.0,54.0,-5.0,-7.0,4.0,0.4,0.2,-0.5,-0.15,-0.22,-0.45,0.85,0.0,0.0,0.0
1752855138255,161.0,-31.0,47.0,-5.0,-5.0,6.0,0.3,0.5,0.2,-0.15,-0.23,-0.4,0.87,0.0,0.0,0.0
1752855138312,162.0,-31.0,43.0,-5.0,-6.0,7.0,0.4,-0.3,0.2,-0.14,-0.23,-0.36,0.89,0.0,0.0,0.0
1752855138347,162.0,-32.0,37.0,-5.0,-5.0,7.0,0.2,0.1,-0.2,-0.14,-0.24,-0.33,0.9,0.0,0.0,0.0
1752855138486,165.0,-34.0,19.0,-5.0,-2.0,8.0,0.2,-0.1,0.8,-0.12,-0.27,-0.18,0.94,0.0,0.0,0.0
1752855138519,167.0,-34.0,13.0,-5.0,-2.0,9.0,0.3,-0.5,0.5,-0.11,-0.28,-0.13,0.94,0.0,0.0,0.0
1752855138566,168.0,-35.0,8.0,-6.0,-1.0,8.0,0.0,-0.0,0.4,-0.1,-0.29,-0.09,0.95,0.0,0.0,0.0
1752855138602,169.0,-36.0,1.0,-6.0,0.0,8.0,0.2,-0.0,-0.2,-0.09,-0.3,-0.05,0.95,0.0,0.0,0.0
1752855138650,170.0,-36.0,-3.0,-6.0,1.0,7.0,0.3,0.1,-0.4,-0.09,-0.31,-0.01,0.95,0.0,0.0,0.0
1752855138787,174.0,-40.0,-26.0,-6.0,3.0,9.0,-0.1,-0.2,2.7,-0.05,-0.35,0.16,0.92,0.0,0.0,0.0
1752855138827,175.0,-41.0,-29.0,-7.0,3.0,9.0,-0.4,-0.6,2.9,-0.04,-0.37,0.18,0.91,0.0,0.0,0.0
1752855138867,175.0,-42.0,-28.0,-7.0,3.0,8.0,-0.3,-0.1,1.2,-0.04,-0.38,0.18,0.91,0.0,0.0,0.0
1752855138916,175.0,-42.0,-29.0,-7.0,4.0,7.0,0.1,-0.0,0.0,-0.04,-0.38,0.18,0.91,0.0,0.0,0.0
1752855138966,175.0,-42.0,-28.0,-6.0,3.0,6.0,0.3,-0.0,-0.2,-0.04,-0.38,0.18,0.91,0.0,0.0,0.0
1752855139003,175.0,-41.0,-28.0,-6.0,4.0,7.0,0.3,0.0,0.6,-0.04,-0.37,0.18,0.91,0.0,0.0,0.0
1752855139044,175.0,-41.0,-29.0,-6.0,3.0,7.0,0.3,-0.6,0.8,-0.04,-0.37,0.18,0.91,0.0,0.0,0.0
1752855139103,175.0,-41.0,-28.0,-6.0,3.0,7.0,0.2,-0.4,0.6,-0.04,-0.37,0.18,0.91,0.0,0.0,0.0
1752855139237,175.0,-41.0,-28.0,-6.0,3.0,7.0,0.1,-0.5,1.0,-0.04,-0.37,0.18,0.91,0.0,0.0,0.0
1752855139270,173.0,-40.0,-28.0,-6.0,2.0,8.0,0.5,-1.2,0.9,-0.05,-0.36,0.18,0.91,0.0,0.0,0.0
1752855139320,172.0,-40.0,-28.0,-6.0,3.0,7.0,0.4,0.0,0.2,-0.06,-0.36,0.18,0.91,0.0,0.0,0.0
1752855139354,170.0,-40.0,-29.0,-6.0,3.0,7.0,0.5,-0.2,-0.1,-0.08,-0.36,0.17,0.91,0.0,0.0,0.0
1752855139400,168.0,-39.0,-29.0,-6.0,4.0,7.0,0.1,0.3,-0.1,-0.09,-0.37,0.17,0.91,0.0,0.0,0.0
1752855139437,166.0,-39.0,-30.0,-6.0,4.0,7.0,0.1,-0.1,0.4,-0.11,-0.37,0.17,0.91,0.0,0.0,0.0
1752855139471,164.0,-39.0,-31.0,-6.0,3.0,7.0,0.1,-1.0,0.9,-0.13,-0.37,0.17,0.9,0.0,0.0,0.0
1752855139614,162.0,-39.0,-26.0,-6.0,5.0,6.0,0.1,1.8,-0.5,-0.14,-0.37,0.16,0.9,0.0,0.0,0.0
1752855139661,164.0,-39.0,-26.0,-6.0,4.0,7.0,0.2,1.0,0.1,-0.13,-0.37,0.14,0.91,0.0,0.0,0.0
1752855140005,182.0,-46.0,-19.0,-6.0,1.0,5.0,0.9,-1.1,-1.3,-0.05,-0.37,0.15,0.91,0.0,0.0,0.0
1752855140051,181.0,-47.0,-17.0,-6.0,1.0,4.0,1.0,-0.7,-2.5,0.01,-0.4,0.12,0.91,0.0,0.0,0.0
1752855140090,181.0,-50.0,-17.0,-7.0,1.0,5.0,0.3,-0.2,-0.2,0.01,-0.42,0.11,0.9,0.0,0.0,0.0
1752855140129,183.0,-54.0,-19.0,-8.0,2.0,7.0,-0.7,-0.3,1.6,0.02,-0.45,0.12,0.88,0.0,0.0,0.0
1752855140169,185.0,-58.0,-21.0,-9.0,1.0,6.0,-0.7,-0.5,1.9,0.04,-0.48,0.13,0.87,0.0,0.0,0.0
1752855140221,188.0,-62.0,-24.0,-10.0,2.0,7.0,-1.3,-0.3,2.8,0.05,-0.51,0.14,0.85,0.0,0.0,0.0
1752855140257,191.0,-65.0,-25.0,-10.0,1.0,6.0,-0.5,-1.0,2.1,0.08,-0.53,0.16,0.83,0.0,0.0,0.0
1752855140288,194.0,-68.0,-26.0,-10.0,1.0,4.0,-0.8,0.3,1.0,0.1,-0.55,0.17,0.81,0.0,0.0,0.0
1752855140334,197.0,-70.0,-23.0,-10.0,1.0,5.0,-0.3,-0.1,1.1,0.12,-0.56,0.17,0.8,0.0,0.0,0.0
1752855140472,201.0,-73.0,-21.0,-10.0,1.0,3.0,-0.4,0.8,1.1,0.14,-0.58,0.17,0.79,0.0,0.0,0.0
1752855140506,212.0,-78.0,-11.0,-9.0,1.0,2.0,0.3,0.5,0.3,0.21,-0.6,0.2,0.75,0.0,0.0,0.0
1752855140657,220.0,-81.0,-9.0,-10.0,1.0,3.0,-0.3,0.3,1.3,0.26,-0.61,0.24,0.71,0.0,0.0,0.0
1752855140693,221.0,-82.0,-10.0,-9.0,0.0,2.0,0.4,-0.3,0.8,0.26,-0.61,0.25,0.71,0.0,0.0,0.0
1752855140828,224.0,-83.0,-2.0,-10.0,0.0,2.0,0.1,-0.5,0.1,0.27,-0.61,0.25,0.7,0.0,0.0,0.0
1752855140869,224.0,-83.0,-2.0,-9.0,-1.0,1.0,0.4,-1.2,-0.0,0.28,-0.61,0.28,0.69,0.0,0.0,0.0
1752855140910,224.0,-83.0,-20.0,-10.0,-0.0,1.0,-0.0,-0.4,0.2,0.28,-0.61,0.28,0.69,0.0,0.0,0.0
1752855140962,224.0,-83.0,-18.0,-9.0,-1.0,1.0,0.4,-1.0,-0.4,0.28,-0.61,0.27,0.69,0.0,0.0,0.0
1752855140995,225.0,-83.0,-15.0,-10.0,0.0,1.0,-0.1,-0.0,-0.1,0.28,-0.61,0.27,0.69,0.0,0.0,0.0
1752855141129,227.0,-85.0,0.0,-9.0,-1.0,1.0,0.7,-0.7,0.3,0.3,-0.62,0.27,0.68,0.0,0.0,0.0
1752855141176,228.0,-85.0,1.0,-10.0,-0.0,2.0,0.0,-0.1,1.5,0.3,-0.62,0.27,0.67,0.0,0.0,0.0
1752855141210,229.0,-85.0,2.0,-10.0,-0.0,1.0,-0.2,0.3,0.8,0.3,-0.63,0.26,0.67,0.0,0.0,0.0
1752855141254,229.0,-86.0,2.0,-11.0,-0.0,1.0,-0.7,0.2,0.6,0.3,-0.63,0.26,0.66,0.0,0.0,0.0
1752855141296,229.0,-86.0,3.0,-11.0,-0.0,1.0,-0.9,0.6,0.4,0.3,-0.64,0.25,0.66,0.0,0.0,0.0
1752855141329,229.0,-86.0,3.0,-11.0,-0.0,1.0,-0.9,0.1,0.6,0.3,-0.65,0.25,0.66,0.0,0.0,0.0
1752855141380,229.0,-86.0,4.0,-10.0,-1.0,0.0,-0.3,-0.0,0.1,0.3,-0.65,0.25,0.65,0.0,0.0,0.0
1752855141413,229.0,-85.0,5.0,-10.0,-1.0,1.0,0.1,-0.0,0.8,0.3,-0.66,0.24,0.65,0.0,0.0,0.0
1752855141460,229.0,-85.0,175.0,-9.0,-1.0,1.0,0.3,0.2,1.1,0.29,-0.67,0.24,0.64,0.0,0.0,0.0
1752855141497,229.0,-84.0,175.0,-9.0,-1.0,1.0,0.6,0.3,0.8,0.29,-0.68,0.23,0.63,0.0,0.0,0.0
1752855141528,228.0,-84.0,174.0,-9.0,-0.0,1.0,0.5,0.4,1.9,0.28,-0.69,0.23,0.63,0.0,0.0,0.0
1752855141576,228.0,-83.0,122.0,-9.0,-1.0,1.0,0.6,0.1,1.7,0.28,-0.69,0.23,0.63,0.0,0.0,0.0
1752855141718,227.0,-83.0,123.0,-9.0,-1.0,-1.0,0.4,-0.5,1.1,0.28,-0.7,0.22,0.63,0.0,0.0,0.0
1752855141762,219.0,-82.0,123.0,-9.0,-2.0,1.0,0.8,-0.3,1.6,0.23,-0.72,0.16,0.64,0.0,0.0,0.0
1752855141803,218.0,-82.0,123.0,-10.0,-1.0,-1.0,-0.1,-0.1,0.2,0.22,-0.72,0.15,0.64,0.0,0.0,0.0
1752855141852,217.0,-82.0,124.0,-10.0,-1.0,-0.0,0.2,0.0,0.4,0.21,-0.72,0.14,0.64,0.0,0.0,0.0
1752855141886,215.0,-82.0,126.0,-9.0,-1.0,-1.0,0.3,-0.0,0.4,0.2,-0.72,0.13,0.65,0.0,0.0,0.0
1752855141923,213.0,-81.0,129.0,-9.0,-1.0,-0.0,0.5,-0.1,0.3,0.19,-0.73,0.13,0.65,0.0,0.0,0.0
1752855142069,198.0,-80.0,158.0,-10.0,-1.0,1.0,-0.7,-0.3,2.2,0.18,-0.73,0.12,0.64,0.0,0.0,0.0
1752855142123,191.0,-79.0,169.0,-10.0,-1.0,-1.0,-0.0,-0.6,1.3,0.07,-0.77,0.05,0.64,0.0,0.0,0.0
1752855142155,188.0,-78.0,175.0,-10.0,-1.0,-1.0,-0.4,-0.9,1.4,0.05,-0.77,0.04,0.63,0.0,0.0,0.0
1752855142206,187.0,-78.0,-179.0,-10.0,0.0,-1.0,0.1,-0.8,1.1,0.04,-0.78,0.05,0.63,0.0,0.0,0.0
1752855142331,181.0,-76.0,-172.0,-8.0,1.0,-4.0,1.0,0.3,-1.7,0.01,-0.78,0.04,0.62,0.0,0.0,0.0
1752855142373,176.0,-76.0,-170.0,-10.0,0.0,-1.0,-0.2,0.1,1.3,-0.01,-0.78,0.01,0.62,0.0,0.0,0.0
1752855142420,171.0,-77.0,-167.0,-9.0,-1.0,0.0,0.6,-1.2,2.6,-0.04,-0.78,-0.02,0.62,0.0,0.0,0.0
1752855142454,167.0,-77.0,-166.0,-9.0,1.0,-1.0,0.5,0.1,0.6,-0.07,-0.78,-0.04,0.62,0.0,0.0,0.0
1752855142504,165.0,-78.0,-165.0,-9.0,1.0,-2.0,0.6,0.0,-0.5,-0.08,-0.77,-0.06,0.62,0.0,0.0,0.0
1752855142531,163.0,-78.0,-166.0,-9.0,1.0,-2.0,0.3,0.2,0.2,-0.09,-0.77,-0.07,0.63,0.0,0.0,0.0
1752855142571,161.0,-78.0,-166.0,-9.0,1.0,-2.0,0.2,0.6,0.1,-0.1,-0.77,-0.09,0.62,0.0,0.0,0.0
1752855142725,157.0,-78.0,-166.0,-10.0,1.0,-1.0,-0.1,-1.4,1.0,-0.12,-0.77,-0.11,0.62,0.0,0.0,0.0
1752855142775,134.0,-79.0,-150.0,-10.0,2.0,-0.0,-0.7,0.8,1.5,-0.24,-0.73,-0.22,0.6,0.0,0.0,0.0
1752855142812,131.0,-79.0,-146.0,-10.0,0.0,-1.0,0.1,-0.9,0.9,-0.27,-0.72,-0.24,0.59,0.0,0.0,0.0
1752855142862,127.0,-80.0,-140.0,-9.0,-1.0,0.0,0.3,-2.0,1.4,-0.29,-0.71,-0.26,0.59,0.0,0.0,0.0
1752855143087,123.0,-86.0,-176.0,-10.0,0.0,1.0,-0.1,-0.2,0.9,-0.33,-0.65,-0.29,0.62,0.0,0.0,0.0
1752855143129,119.0,-87.0,-3.0,-10.0,1.0,1.0,0.0,0.7,1.0,-0.35,-0.63,-0.32,0.61,0.0,0.0,0.0
1752855143163,114.0,-88.0,-2.0,-9.0,1.0,1.0,0.3,0.5,0.8,-0.38,-0.6,-0.35,0.6,0.0,0.0,0.0
1752855143209,110.0,-88.0,-0.0,-9.0,1.0,1.0,0.4,1.1,0.0,-0.41,-0.57,-0.39,0.59,0.0,0.0,0.0
1752855143260,105.0,-87.0,1.0,-10.0,0.0,1.0,0.1,0.2,0.6,-0.44,-0.54,-0.42,0.58,0.0,0.0,0.0
1752855143287,103.0,-86.0,1.0,-10.0,-0.0,2.0,0.0,0.1,1.4,-0.45,-0.53,-0.43,0.57,0.0,0.0,0.0
1752855143327,104.0,-86.0,1.0,-10.0,-0.0,2.0,-0.0,-0.1,1.5,-0.45,-0.53,-0.43,0.58,0.0,0.0,0.0
1752855143380,105.0,-85.0,1.0,-10.0,-1.0,1.0,-0.6,-0.6,0.4,-0.45,-0.53,-0.43,0.58,0.0,0.0,0.0
1752855143412,104.0,-84.0,1.0,-10.0,-1.0,2.0,-0.0,-0.8,1.1,-0.46,-0.52,-0.43,0.58,0.0,0.0,0.0
1752855143447,101.0,-82.0,14.0,-9.0,-1.0,3.0,0.0,-0.1,1.3,-0.48,-0.49,-0.44,0.58,0.0,0.0,0.0
1752855143481,97.0,-80.0,18.0,-9.0,-1.0,2.0,0.4,-1.1,0.8,-0.5,-0.46,-0.45,0.57,0.0,0.0,0.0
1752855143628,86.0,-71.0,39.0,-9.0,-2.0,2.0,0.1,-0.1,-0.1,-0.53,-0.43,-0.47,0.56,0.0,0.0,0.0
1752855143667,84.0,-69.0,46.0,-9.0,-4.0,2.0,-0.0,-0.9,-0.2,-0.59,-0.28,-0.54,0.53,0.0,0.0,0.0
1752855143812,87.0,-64.0,62.0,-9.0,-4.0,3.0,1.3,-2.7,2.2,-0.59,-0.26,-0.56,0.53,0.0,0.0,0.0
1752855143871,88.0,-64.0,66.0,-10.0,-4.0,3.0,-1.7,0.2,1.0,-0.55,-0.21,-0.6,0.53,0.0,0.0,0.0
1752855144102,90.0,-58.0,70.0,-8.0,-4.0,2.0,0.0,-0.0,-0.1,-0.55,-0.18,-0.63,0.51,0.0,0.0,0.0
1752855144138,90.0,-58.0,66.0,-9.0,-4.0,2.0,-0.8,0.4,-0.2,-0.55,-0.17,-0.61,0.55,0.0,0.0,0.0
1752855144179,91.0,-59.0,62.0,-7.0,-6.0,2.0,1.6,-1.4,-0.0,-0.55,-0.18,-0.59,0.56,0.0,0.0,0.0
1752855144219,93.0,-59.0,57.0,-8.0,-7.0,1.0,0.7,-3.1,-1.9,-0.55,-0.2,-0.57,0.57,0.0,0.0,0.0
1752855144271,95.0,-60.0,53.0,-8.0,-6.0,5.0,-0.2,-1.3,2.0,-0.54,-0.22,-0.55,0.6,0.0,0.0,0.0
1752855144422,95.0,-52.0,66.0,-8.0,-5.0,1.0,-0.2,0.6,-1.4,-0.53,-0.13,-0.6,0.59,0.0,0.0,0.0
1752855144455,95.0,-48.0,71.0,-7.0,-5.0,1.0,0.4,0.1,-1.0,-0.53,-0.08,-0.62,0.57,0.0,0.0,0.0
1752855144488,96.0,-46.0,72.0,-6.0,-5.0,1.0,1.1,2.3,0.1,-0.52,-0.06,-0.62,0.58,0.0,0.0,0.0
1752855144536,98.0,-44.0,73.0,-6.0,-3.0,4.0,1.0,1.2,0.2,-0.51,-0.04,-0.63,0.59,0.0,0.0,0.0
1752855144571,98.0,-42.0,76.0,-8.0,-5.0,3.0,-1.9,1.9,1.5,-0.5,-0.03,-0.64,0.58,0.0,0.0,0.0
1752855144619,100.0,-42.0,74.0,-7.0,-5.0,3.0,-0.1,2.0,0.8,-0.5,-0.03,-0.63,0.59,0.0,0.0,0.0
1752855144654,102.0,-43.0,68.0,-7.0,-6.0,3.0,0.3,0.2,-0.7,-0.5,-0.06,-0.6,0.62,0.0,0.0,0.0
1752855144688,104.0,-44.0,61.0,-7.0,-6.0,3.0,0.0,0.7,-0.6,-0.5,-0.1,-0.56,0.65,0.0,0.0,0.0
1752855144729,106.0,-46.0,55.0,-7.0,-6.0,3.0,0.8,-0.8,-1.1,-0.51,-0.13,-0.53,0.67,0.0,0.0,0.0
1752855144874,111.0,-52.0,44.0,-8.0,-6.0,9.0,-0.5,-1.7,5.2,-0.49,-0.23,-0.47,0.7,0.0,0.0,0.0
1752855144922,113.0,-51.0,43.0,-8.0,-5.0,6.0,0.2,-0.6,-0.2,-0.48,-0.24,-0.46,0.71,0.0,0.0,0.0
1752855144971,115.0,-48.0,41.0,-7.0,-4.0,4.0,0.6,-0.0,-0.9,-0.47,-0.23,-0.44,0.73,0.0,0.0,0.0
1752855145001,116.0,-45.0,41.0,-6.0,-4.0,4.0,0.8,0.6,-1.2,-0.47,-0.2,-0.44,0.74,0.0,0.0,0.0
1752855145035,116.0,-43.0,44.0,-6.0,-5.0,5.0,0.1,-0.2,-0.5,-0.46,-0.17,-0.45,0.74,0.0,0.0,0.0
1752855145077,118.0,-41.0,42.0,-6.0,-6.0,6.0,0.4,-1.3,0.7,-0.46,-0.17,-0.44,0.75,0.0,0.0,0.0
1752855145129,119.0,-40.0,42.0,-6.0,-6.0,6.0,0.1,-0.1,0.1,-0.45,-0.16,-0.44,0.76,0.0,0.0,0.0
1752855145170,120.0,-38.0,44.0,-6.0,-5.0,6.0,0.1,0.6,0.1,-0.44,-0.15,-0.44,0.76,0.0,0.0,0.0
1752855145217,120.0,-38.0,44.0,-6.0,-5.0,6.0,0.1,0.8,0.3,-0.44,-0.15,-0.44,0.77,0.0,0.0,0.0
1752855145252,121.0,-38.0,45.0,-6.0,-5.0,6.0,-0.1,0.7,0.4,-0.44,-0.15,-0.44,0.77,0.0,0.0,0.0
1752855145286,121.0,-38.0,45.0,-6.0,-5.0,6.0,-0.2,0.7,0.6,-0.44,-0.14,-0.45,0.77,0.0,0.0,0.0
1752855145333,120.0,-37.0,45.0,-6.0,-5.0,5.0,0.0,0.2,-0.9,-0.44,-0.14,-0.45,0.77,0.0,0.0,0.0
1752855145379,122.0,-37.0,43.0,-6.0,-6.0,5.0,-0.0,-1.0,-0.4,-0.44,-0.14,-0.43,0.78,0.0,0.0,0.0
1752855145413,123.0,-37.0,42.0,-6.0,-6.0,6.0,-0.4,-0.6,0.1,-0.42,-0.16,-0.42,0.79,0.0,0.0,0.0
1752855145462,126.0,-38.0,42.0,-7.0,-5.0,7.0,-1.0,-0.1,0.8,-0.41,-0.17,-0.42,0.79,0.0,0.0,0.0
1752855145493,129.0,-38.0,42.0,-7.0,-5.0,7.0,-0.6,0.2,1.0,-0.39,-0.19,-0.42,0.8,0.0,0.0,0.0
1752855145527,132.0,-39.0,42.0,-7.0,-5.0,7.0,-0.2,0.2,0.9,-0.36,-0.2,-0.41,0.81,0.0,0.0,0.0
1752855145674,141.0,-41.0,41.0,-5.0,-6.0,6.0,1.2,-0.7,0.1,-0.3,-0.25,-0.39,0.83,0.0,0.0,0.0
1752855145721,142.0,-41.0,41.0,-5.0,-6.0,6.0,1.6,-1.1,-0.0,-0.29,-0.26,-0.38,0.84,0.0,0.0,0.0
1752855145758,143.0,-41.0,41.0,-4.0,-7.0,6.0,2.2,-1.9,-0.1,-0.28,-0.26,-0.38,0.84,0.0,0.0,0.0
1752855145792,145.0,-40.0,40.0,-4.0,-7.0,6.0,2.4,-2.3,0.6,-0.27,-0.26,-0.37,0.85,0.0,0.0,0.0
1752855145838,146.0,-39.0,39.0,-4.0,-7.0,7.0,2.2,-1.9,1.2,-0.26,-0.25,-0.36,0.86,0.0,0.0,0.0
1752855146077,135.0,-34.0,33.0,-6.0,-3.0,7.0,-0.6,-0.2,0.4,-0.27,-0.24,-0.36,0.86,0.0,0.0,0.0
1752855146125,112.0,-37.0,24.0,-6.0,-2.0,8.0,-0.5,0.9,1.2,-0.51,-0.17,-0.32,0.78,0.0,0.0,0.0
1752855146169,110.0,-38.0,23.0,-6.0,-2.0,8.0,-0.1,1.3,1.3,-0.53,-0.17,-0.32,0.76,0.0,0.0,0.0
1752855146212,109.0,-39.0,23.0,-6.0,-1.0,8.0,0.4,1.7,1.3,-0.54,-0.18,-0.33,0.76,0.0,0.0,0.0
1752855146346,115.0,-37.0,24.0,-6.0,-2.0,8.0,-0.2,0.9,0.4,-0.5,-0.18,-0.33,0.78,0.0,0.0,0.0
1752855146380,119.0,-36.0,25.0,-7.0,-3.0,8.0,-0.8,0.6,0.6,-0.48,-0.18,-0.32,0.8,0.0,0.0,0.0
1752855146431,122.0,-36.0,25.0,-7.0,-4.0,8.0,-0.9,-0.7,0.3,-0.46,-0.18,-0.32,0.81,0.0,0.0,0.0
1752855146472,127.0,-36.0,26.0,-6.0,-4.0,8.0,-0.5,-1.0,0.3,-0.43,-0.19,-0.31,0.83,0.0,0.0,0.0
1752855146515,131.0,-36.0,27.0,-6.0,-5.0,7.0,-0.0,-1.2,0.1,-0.39,-0.21,-0.31,0.84,0.0,0.0,0.0
1752855146664,143.0,-38.0,30.0,-4.0,-5.0,7.0,1.8,-1.0,-0.2,-0.35,-0.22,-0.31,0.86,0.0,0.0,0.0
1752855146700,145.0,-38.0,30.0,-4.0,-5.0,6.0,1.8,-0.8,-0.2,-0.28,-0.26,-0.31,0.87,0.0,0.0,0.0
1752855146734,146.0,-38.0,31.0,-4.0,-5.0,6.0,1.6,-0.9,-0.3,-0.27,-0.26,-0.31,0.88,0.0,0.0,0.0
1752855146786,147.0,-37.0,31.0,-4.0,-6.0,7.0,1.5,-1.6,-0.1,-0.26,-0.25,-0.31,0.88,0.0,0.0,0.0
1752855146820,147.0,-37.0,31.0,-4.0,-6.0,7.0,1.4,-1.9,0.4,-0.26,-0.25,-0.31,0.88,0.0,0.0,0.0
1752855146969,141.0,-34.0,31.0,-6.0,-4.0,7.0,-0.1,-0.1,0.1,-0.31,-0.21,-0.32,0.87,0.0,0.0,0.0
1752855147010,137.0,-34.0,31.0,-6.0,-4.0,7.0,-0.3,-0.0,0.1,-0.33,-0.2,-0.32,0.87,0.0,0.0,0.0
1752855147161,124.0,-35.0,29.0,-6.0,-3.0,8.0,-0.0,0.7,0.7,-0.43,-0.17,-0.33,0.82,0.0,0.0,0.0
1752855147203,122.0,-35.0,29.0,-5.0,-3.0,8.0,0.1,1.3,0.7,-0.45,-0.16,-0.34,0.81,0.0,0.0,0.0
1752855147336,117.0,-35.0,27.0,-6.0,-2.0,8.0,-0.2,1.7,0.6,-0.49,-0.16,-0.33,0.79,0.0,0.0,0.0
1752855147377,117.0,-35.0,25.0,-6.0,-3.0,8.0,-0.4,0.8,0.8,-0.49,-0.16,-0.32,0.79,0.0,0.0,0.0
1752855147420,118.0,-35.0,25.0,-6.0,-3.0,8.0,-0.9,0.6,1.0,-0.48,-0.17,-0.31,0.8,0.0,0.0,0.0
1752855147461,120.0,-35.0,24.0,-7.0,-3.0,8.0,-0.9,0.2,0.7,-0.47,-0.17,-0.31,0.81,0.0,0.0,0.0
1752855147501,123.0,-34.0,24.0,-6.0,-4.0,8.0,-0.6,-0.5,0.1,-0.45,-0.18,-0.3,0.82,0.0,0.0,0.0
1752855147537,128.0,-34.0,25.0,-6.0,-4.0,8.0,-0.4,-1.0,0.3,-0.42,-0.19,-0.3,0.84,0.0,0.0,0.0
1752855147587,132.0,-35.0,25.0,-6.0,-5.0,8.0,0.0,-1.1,0.3,-0.39,-0.2,-0.3,0.85,0.0,0.0,0.0
1752855147620,136.0,-35.0,26.0,-5.0,-4.0,7.0,0.5,-0.7,-0.0,-0.35,-0.21,-0.3,0.86,0.0,0.0,0.0
1752855147685,140.0,-35.0,28.0,-5.0,-4.0,7.0,0.9,-0.5,-0.1,-0.32,-0.22,-0.3,0.87,0.0,0.0,0.0
1752855147709,143.0,-36.0,29.0,-5.0,-4.0,7.0,1.1,-0.4,-0.1,-0.29,-0.23,-0.3,0.88,0.0,0.0,0.0
1752855147854,148.0,-35.0,30.0,-4.0,-6.0,8.0,1.3,-1.5,0.5,-0.28,-0.24,-0.3,0.88,0.0,0.0,0.0
1752855147887,148.0,-35.0,29.0,-4.0,-6.0,8.0,1.4,-1.6,0.6,-0.25,-0.24,-0.29,0.89,0.0,0.0,0.0
1752855147937,148.0,-34.0,30.0,-4.0,-5.0,8.0,1.2,-1.1,0.4,-0.26,-0.22,-0.3,0.89,0.0,0.0,0.0
1752855148089,146.0,-32.0,30.0,-5.0,-4.0,7.0,-0.6,0.2,0.1,-0.27,-0.21,-0.3,0.89,0.0,0.0,0.0
1752855148540,129.0,-32.0,24.0,-6.0,-4.0,7.0,-0.5,-0.2,-0.0,-0.48,-0.17,-0.3,0.81,0.0,0.0,0.0
1752855148892,148.0,-32.0,29.0,-5.0,-4.0,7.0,0.2,-0.5,0.3,-0.27,-0.21,-0.29,0.89,0.0,0.0,0.0
1752855148939,154.0,-35.0,29.0,-5.0,-4.0,7.0,0.1,-0.5,0.3,-0.21,-0.25,-0.28,0.9,0.0,0.0,0.0
1752855149083,154.0,-35.0,30.0,-6.0,-4.0,7.0,-0.0,0.2,0.2,-0.21,-0.26,-0.28,0.9,0.0,0.0,0.0
1752855149225,154.0,-34.0,29.0,-6.0,-4.0,7.0,-0.4,0.2,-0.5,-0.21,-0.25,-0.28,0.9,0.0,0.0,0.0
1752855149273,153.0,-33.0,29.0,-6.0,-4.0,7.0,-0.9,0.0,-0.4,-0.21,-0.24,-0.28,0.91,0.0,0.0,0.0
1752855149323,152.0,-34.0,28.0,-7.0,-5.0,7.0,-0.9,-0.8,-0.6,-0.22,-0.24,-0.27,0.9,0.0,0.0,0.0
1752855149357,150.0,-36.0,28.0,-7.0,-4.0,6.0,-0.8,-0.1,-0.9,-0.24,-0.26,-0.28,0.89,0.0,0.0,0.0
1752855149392,148.0,-42.0,29.0,-8.0,-3.0,6.0,-1.6,0.3,-0.3,-0.25,-0.29,-0.29,0.88,0.0,0.0,0.0
1752855149433,145.0,-48.0,30.0,-9.0,-3.0,6.0,-1.8,-0.3,0.8,-0.26,-0.33,-0.3,0.85,0.0,0.0,0.0
1752855149476,143.0,-52.0,30.0,-9.0,-4.0,6.0,-1.1,-0.9,1.0,-0.28,-0.38,-0.31,0.83,0.0,0.0,0.0
1752855149522,140.0,-58.0,31.0,-9.0,-3.0,5.0,-0.3,-0.7,0.7,-0.29,-0.42,-0.32,0.8,0.0,0.0,0.0
1752855149547,138.0,-64.0,32.0,-9.0,-3.0,4.0,-0.0,-0.3,0.8,-0.3,-0.46,-0.32,0.77,0.0,0.0,0.0
1752855149596,135.0,-70.0,34.0,-9.0,-2.0,3.0,0.3,-0.1,0.6,-0.3,-0.49,-0.33,0.75,0.0,0.0,0.0
1752855149630,134.0,-74.0,38.0,-9.0,-2.0,3.0,0.5,-0.2,0.7,-0.31,-0.52,-0.34,0.72,0.0,0.0,0.0
1752855149671,133.0,-77.0,43.0,-9.0,-2.0,2.0,0.6,-0.2,0.7,-0.3,-0.54,-0.35,0.7,0.0,0.0,0.0
1752855149711,132.0,-79.0,52.0,-9.0,-1.0,2.0,0.5,0.1,0.7,-0.3,-0.56,-0.36,0.68,0.0,0.0,0.0
1752855149747,132.0,-81.0,64.0,-9.0,-1.0,1.0,0.6,0.3,0.8,-0.3,-0.58,-0.36,0.67,0.0,0.0,0.0
1752855149790,132.0,-81.0,76.0,-9.0,-1.0,1.0,0.7,0.3,0.4,-0.29,-0.59,-0.37,0.66,0.0,0.0,0.0
1752855149842,132.0,-81.0,87.0,-9.0,-1.0,0.0,0.5,0.4,0.3,-0.29,-0.59,-0.38,0.65,0.0,0.0,0.0
1752855149881,132.0,-81.0,91.0,-9.0,-1.0,0.0,0.2,0.4,0.4,-0.29,-0.6,-0.38,0.65,0.0,0.0,0.0
1752855149927,132.0,-81.0,95.0,-9.0,-1.0,0.0,0.3,0.3,0.2,-0.28,-0.6,-0.39,0.64,0.0,0.0,0.0
1752855150072,134.0,-79.0,102.0,-9.0,-2.0,-0.0,0.2,0.0,0.4,-0.28,-0.6,-0.39,0.64,0.0,0.0,0.0
1752855150218,133.0,-79.0,113.0,-8.0,-2.0,0.0,1.2,-0.1,1.3,-0.27,-0.6,-0.41,0.63,0.0,0.0,0.0
1752855150251,130.0,-81.0,113.0,-8.0,-1.0,1.0,1.6,0.0,1.6,-0.29,-0.61,-0.41,0.62,0.0,0.0,0.0
1752855150304,126.0,-83.0,173.0,-8.0,-1.0,1.0,2.1,0.3,1.2,-0.31,-0.6,-0.4,0.62,0.0,0.0,0.0
1752855150338,122.0,-85.0,4.0,-8.0,-0.0,2.0,2.0,0.4,1.1,-0.34,-0.59,-0.39,0.63,0.0,0.0,0.0
1752855150388,120.0,-84.0,3.0,-8.0,-1.0,2.0,1.6,-0.2,0.8,-0.37,-0.57,-0.37,0.64,0.0,0.0,0.0
1752855150418,117.0,-80.0,8.0,-8.0,-1.0,2.0,1.4,-0.5,0.3,-0.4,-0.54,-0.35,0.65,0.0,0.0,0.0
1752855150452,115.0,-75.0,2.0,-9.0,-0.0,3.0,0.6,-0.2,0.5,-0.42,-0.51,-0.33,0.67,0.0,0.0,0.0
1752855150502,115.0,-68.0,4.0,-9.0,-0.0,4.0,-0.1,0.2,0.6,-0.44,-0.48,-0.32,0.69,0.0,0.0,0.0
1752855150538,116.0,-63.0,6.0,-10.0,-0.0,5.0,-1.3,0.5,0.9,-0.45,-0.44,-0.31,0.72,0.0,0.0,0.0
1752855150588,117.0,-59.0,9.0,-10.0,-0.0,6.0,-2.1,0.6,0.8,-0.45,-0.4,-0.3,0.74,0.0,0.0,0.0
1752855150621,120.0,-54.0,12.0,-10.0,-1.0,6.0,-2.6,0.2,0.4,-0.45,-0.36,-0.29,0.77,0.0,0.0,0.0
1752855150756,134.0,-42.0,20.0,-9.0,-2.0,7.0,-2.3,0.2,-0.1,-0.37,-0.28,-0.27,0.85,0.0,0.0,0.0
1752855150797,138.0,-42.0,21.0,-8.0,-3.0,7.0,-1.6,0.1,0.2,-0.34,-0.29,-0.27,0.86,0.0,0.0,0.0
1752855150840,141.0,-44.0,22.0,-7.0,-3.0,7.0,-0.6,-0.7,0.5,-0.31,-0.3,-0.27,0.86,0.0,0.0,0.0
1752855150880,142.0,-46.0,22.0,-7.0,-3.0,7.0,0.1,-0.3,1.3,-0.3,-0.33,-0.27,0.85,0.0,0.0,0.0
1752855150914,142.0,-50.0,23.0,-7.0,-3.0,7.0,0.7,-0.7,1.3,-0.29,-0.36,-0.27,0.84,0.0,0.0,0.0
1752855150956,140.0,-54.0,22.0,-7.0,-3.0,7.0,1.4,-1.2,1.3,-0.3,-0.39,-0.28,0.83,0.0,0.0,0.0
1752855150999,136.0,-58.0,19.0,-6.0,-3.0,6.0,2.1,-1.3,0.8,-0.32,-0.41,-0.28,0.81,0.0,0.0,0.0
1752855151041,131.0,-61.0,15.0,-6.0,-2.0,5.0,2.5,-1.1,0.6,-0.35,-0.43,-0.28,0.79,0.0,0.0,0.0
1752855151092,127.0,-63.0,10.0,-6.0,-2.0,5.0,2.7,-1.1,0.8,-0.37,-0.45,-0.28,0.76,0.0,0.0,0.0
1752855151225,114.0,-62.0,-3.0,-7.0,2.0,6.0,0.8,1.4,1.3,-0.46,-0.44,-0.27,0.72,0.0,0.0,0.0
1752855151266,113.0,-59.0,-4.0,-8.0,2.0,6.0,-0.1,1.4,1.0,-0.48,-0.42,-0.26,0.72,0.0,0.0,0.0
1752855151306,112.0,-57.0,-4.0,-9.0,2.0,6.0,-1.0,1.2,0.5,-0.49,-0.41,-0.25,0.73,0.0,0.0,0.0
1752855151359,113.0,-53.0,-2.0,-9.0,1.0,6.0,-1.9,1.2,0.4,-0.49,-0.38,-0.24,0.74,0.0,0.0,0.0
1752855151393,115.0,-50.0,0.0,-10.0,1.0,7.0,-2.4,0.7,0.2,-0.48,-0.36,-0.23,0.77,0.0,0.0,0.0
1752855151536,128.0,-45.0,9.0,-9.0,-2.0,7.0,-1.6,-0.7,0.0,-0.47,-0.34,-0.22,0.78,0.0,0.0,0.0
1752855151580,131.0,-46.0,10.0,-8.0,-2.0,7.0,-0.6,-1.2,0.3,-0.38,-0.33,-0.22,0.83,0.0,0.0,0.0
1752855151632,133.0,-47.0,12.0,-7.0,-2.0,7.0,0.2,-0.9,0.6,-0.36,-0.34,-0.23,0.84,0.0,0.0,0.0
1752855151758,136.0,-54.0,16.0,-6.0,-2.0,6.0,1.9,-0.4,0.4,-0.34,-0.35,-0.24,0.84,0.0,0.0,0.0
1752855151795,135.0,-55.0,15.0,-6.0,-2.0,6.0,1.8,-0.3,0.3,-0.33,-0.4,-0.25,0.82,0.0,0.0,0.0
1752855151839,134.0,-56.0,14.0,-7.0,-1.0,6.0,1.5,-0.0,0.5,-0.34,-0.4,-0.26,0.81,0.0,0.0,0.0
1752855151882,134.0,-56.0,14.0,-7.0,-1.0,6.0,1.2,0.2,0.3,-0.35,-0.4,-0.26,0.81,0.0,0.0,0.0
1752855151931,133.0,-56.0,13.0,-7.0,-1.0,6.0,0.8,0.4,0.3,-0.35,-0.4,-0.26,0.81,0.0,0.0,0.0
1752855151966,132.0,-55.0,12.0,-8.0,-1.0,6.0,0.2,0.3,0.3,-0.36,-0.39,-0.25,0.81,0.0,0.0,0.0
1752855151998,131.0,-54.0,12.0,-8.0,-1.0,6.0,-0.2,0.1,0.4,-0.37,-0.39,-0.25,0.81,0.0,0.0,0.0
1752855152149,130.0,-51.0,13.0,-8.0,-2.0,6.0,-0.0,-0.2,0.1,-0.38,-0.36,-0.25,0.81,0.0,0.0,0.0
1752855152185,130.0,-51.0,13.0,-8.0,-2.0,7.0,0.0,-0.5,0.7,-0.38,-0.36,-0.25,0.82,0.0,0.0,0.0
1752855152235,130.0,-51.0,14.0,-7.0,-2.0,6.0,0.2,-0.3,0.4,-0.38,-0.36,-0.26,0.81,0.0,0.0,0.0
1752855152269,130.0,-51.0,14.0,-7.0,-1.0,6.0,0.1,0.1,0.3,-0.38,-0.35,-0.26,0.81,0.0,0.0,0.0
1752855152309,129.0,-51.0,14.0,-7.0,-2.0,7.0,0.2,-0.1,0.5,-0.39,-0.35,-0.26,0.81,0.0,0.0,0.0
1752855152449,126.0,-50.0,13.0,-7.0,-1.0,6.0,0.2,0.3,0.3,-0.39,-0.35,-0.26,0.81,0.0,0.0,0.0
1752855152493,125.0,-50.0,13.0,-7.0,-1.0,7.0,0.1,0.3,0.4,-0.42,-0.34,-0.27,0.8,0.0,0.0,0.0
1752855152636,123.0,-50.0,12.0,-8.0,-1.0,7.0,-0.0,0.8,0.2,-0.42,-0.34,-0.27,0.8,0.0,0.0,0.0
1752855152783,122.0,-49.0,9.0,-8.0,-1.0,6.0,-0.3,-0.2,0.0,-0.43,-0.34,-0.27,0.79,0.0,0.0,0.0
1752855152936,122.0,-49.0,8.0,-8.0,-1.0,6.0,-0.2,-0.5,0.0,-0.44,-0.34,-0.25,0.79,0.0,0.0,0.0
1752855153084,124.0,-49.0,7.0,-7.0,-1.0,6.0,0.0,-0.3,0.2,-0.43,-0.35,-0.23,0.8,0.0,0.0,0.0
1752855153428,128.0,-49.0,12.0,-7.0,-1.0,6.0,-0.1,-0.0,-0.1,-0.41,-0.35,-0.24,0.81,0.0,0.0,0.0
1752855153588,125.0,-48.0,10.0,-7.0,-1.0,7.0,-0.2,-0.1,0.4,-0.41,-0.33,-0.24,0.81,0.0,0.0,0.0
1752855153623,125.0,-48.0,10.0,-7.0,-1.0,7.0,-0.0,-0.0,0.2,-0.42,-0.33,-0.25,0.81,0.0,0.0,0.0
1752855153760,125.0,-49.0,12.0,-7.0,-1.0,7.0,-0.1,-0.0,0.3,-0.42,-0.33,-0.25,0.81,0.0,0.0,0.0
1752855153998,124.0,-58.0,18.0,-9.0,-1.0,5.0,-0.8,0.2,0.1,-0.42,-0.33,-0.26,0.8,0.0,0.0,0.0
1752855154046,124.0,-62.0,20.0,-9.0,-1.0,5.0,-0.7,0.1,0.6,-0.4,-0.41,-0.33,0.75,0.0,0.0,0.0
1752855154085,123.0,-65.0,21.0,-9.0,-1.0,4.0,-0.2,0.4,0.5,-0.4,-0.44,-0.34,0.73,0.0,0.0,0.0
1752855154125,123.0,-69.0,22.0,-9.0,-1.0,4.0,0.2,0.1,0.8,-0.39,-0.46,-0.35,0.72,0.0,0.0,0.0
1752855154161,123.0,-72.0,24.0,-9.0,-1.0,4.0,0.5,-0.0,0.9,-0.38,-0.48,-0.35,0.71,0.0,0.0,0.0
1752855154301,123.0,-74.0,25.0,-9.0,-1.0,3.0,0.6,-0.3,0.7,-0.38,-0.5,-0.35,0.7,0.0,0.0,0.0
1752855154457,124.0,-77.0,28.0,-9.0,-1.0,2.0,0.4,0.0,-0.3,-0.37,-0.52,-0.36,0.68,0.0,0.0,0.0
1752855154603,126.0,-75.0,36.0,-10.0,-1.0,2.0,-0.3,0.2,-0.0,-0.36,-0.51,-0.37,0.69,0.0,0.0,0.0
1752855154846,126.0,-75.0,39.0,-9.0,-2.0,2.0,0.3,0.1,-0.0,-0.35,-0.51,-0.38,0.69,0.0,0.0,0.0
1752855155104,123.0,-76.0,44.0,-9.0,-1.0,2.0,0.0,0.2,0.1,-0.35,-0.51,-0.4,0.68,0.0,0.0,0.0
1752855155255,122.0,-77.0,43.0,-9.0,-1.0,2.0,0.1,0.3,0.1,-0.37,-0.5,-0.4,0.67,0.0,0.0,0.0
1752855155286,122.0,-77.0,44.0,-9.0,-1.0,2.0,0.3,0.6,-0.0,-0.37,-0.51,-0.4,0.67,0.0,0.0,0.0
1752855155336,122.0,-77.0,43.0,-9.0,-1.0,2.0,0.6,0.4,0.4,-0.37,-0.51,-0.4,0.67,0.0,0.0,0.0
1752855155374,123.0,-77.0,42.0,-9.0,-1.0,2.0,0.7,0.1,0.3,-0.37,-0.51,-0.39,0.67,0.0,0.0,0.0
1752855155511,123.0,-77.0,40.0,-10.0,-2.0,2.0,-0.2,-0.1,-0.0,-0.36,-0.51,-0.39,0.67,0.0,0.0,0.0
1752855155550,127.0,-74.0,37.0,-10.0,-2.0,2.0,-0.3,-0.3,0.0,-0.35,-0.5,-0.37,0.7,0.0,0.0,0.0
1752855155598,128.0,-73.0,37.0,-10.0,-2.0,2.0,-0.2,-0.4,-0.2,-0.35,-0.5,-0.37,0.7,0.0,0.0,0.0
1752855155753,134.0,-70.0,42.0,-9.0,-2.0,3.0,-0.1,0.5,0.1,-0.33,-0.5,-0.37,0.71,0.0,0.0,0.0
1752855155797,136.0,-69.0,43.0,-9.0,-2.0,3.0,-0.0,0.8,0.3,-0.3,-0.49,-0.36,0.73,0.0,0.0,0.0
1752855156055,142.0,-70.0,38.0,-10.0,-2.0,3.0,-0.4,0.0,-0.1,-0.29,-0.49,-0.36,0.74,0.0,0.0,0.0
1752855156090,143.0,-70.0,36.0,-10.0,-2.0,2.0,-0.5,-0.1,-0.3,-0.26,-0.52,-0.31,0.76,0.0,0.0,0.0
1752855156130,142.0,-71.0,35.0,-10.0,-2.0,2.0,-0.4,-0.1,-0.6,-0.26,-0.52,-0.31,0.75,0.0,0.0,0.0
1752855156169,141.0,-71.0,35.0,-9.0,-2.0,2.0,-0.1,0.1,-0.8,-0.26,-0.52,-0.31,0.75,0.0,0.0,0.0
1752855156216,140.0,-72.0,36.0,-9.0,-2.0,2.0,-0.1,0.0,-0.7,-0.27,-0.53,-0.31,0.74,0.0,0.0,0.0
1752855156269,138.0,-73.0,37.0,-9.0,-2.0,2.0,0.0,-0.0,-0.4,-0.28,-0.53,-0.32,0.73,0.0,0.0,0.0
1752855156306,135.0,-75.0,40.0,-9.0,-2.0,2.0,0.0,0.0,-0.2,-0.3,-0.53,-0.34,0.72,0.0,0.0,0.0
1752855156456,124.0,-78.0,50.0,-9.0,-1.0,2.0,0.2,0.3,0.7,-0.35,-0.52,-0.39,0.67,0.0,0.0,0.0
1752855156497,120.0,-78.0,51.0,-9.0,-1.0,2.0,0.2,0.9,1.0,-0.37,-0.51,-0.41,0.65,0.0,0.0,0.0
1752855156647,116.0,-78.0,53.0,-9.0,-1.0,3.0,0.8,1.0,0.3,-0.4,-0.5,-0.44,0.64,0.0,0.0,0.0
1752855156690,103.0,-79.0,49.0,-9.0,-1.0,1.0,0.9,-0.1,-0.1,-0.47,-0.45,-0.48,0.59,0.0,0.0,0.0
1752855156724,100.0,-80.0,46.0,-9.0,-2.0,1.0,0.8,-0.8,-0.7,-0.48,-0.45,-0.49,0.57,0.0,0.0,0.0
1752855156860,93.0,-80.0,41.0,-11.0,-2.0,1.0,-0.9,-1.2,-0.4,-0.5,-0.44,-0.49,0.56,0.0,0.0,0.0
1752855156910,92.0,-79.0,44.0,-11.0,-2.0,2.0,-1.0,-0.4,0.4,-0.52,-0.41,-0.51,0.54,0.0,0.0,0.0
1752855157061,90.0,-77.0,58.0,-9.0,-1.0,2.0,0.4,0.9,0.5,-0.53,-0.36,-0.55,0.53,0.0,0.0,0.0
1752855157652,97.0,-71.0,50.0,-10.0,-2.0,2.0,-0.4,0.2,-0.0,-0.51,-0.35,-0.52,0.58,0.0,0.0,0.0
1752855157760,98.0,-72.0,47.0,-9.0,-1.0,3.0,0.2,1.2,0.5,-0.51,-0.36,-0.51,0.59,0.0,0.0,0.0
1752855157803,98.0,-73.0,47.0,-9.0,-1.0,2.0,0.7,1.0,0.3,-0.51,-0.37,-0.51,0.58,0.0,0.0,0.0
1752855157849,97.0,-74.0,46.0,-9.0,-1.0,2.0,0.6,0.8,0.4,-0.51,-0.38,-0.51,0.58,0.0,0.0,0.0
1752855157909,97.0,-76.0,44.0,-9.0,-1.0,2.0,0.3,0.3,0.4,-0.51,-0.4,-0.5,0.57,0.0,0.0,0.0
1752855157947,97.0,-77.0,41.0,-10.0,-1.0,2.0,0.0,0.3,0.4,-0.51,-0.41,-0.5,0.57,0.0,0.0,0.0
1752855157990,96.0,-78.0,39.0,-10.0,-1.0,2.0,-0.1,0.4,-0.0,-0.51,-0.42,-0.49,0.57,0.0,0.0,0.0
1752855158028,96.0,-78.0,36.0,-10.0,-1.0,1.0,-0.2,0.4,-0.6,-0.51,-0.42,-0.49,0.57,0.0,0.0,0.0
1752855158075,97.0,-78.0,33.0,-10.0,-1.0,1.0,-0.4,0.3,-0.6,-0.51,-0.43,-0.48,0.57,0.0,0.0,0.0
1752855158213,97.0,-79.0,32.0,-10.0,-1.0,2.0,-0.4,-0.4,-0.0,-0.5,-0.44,-0.47,0.57,0.0,0.0,0.0
1752855158254,97.0,-79.0,33.0,-10.0,-1.0,1.0,0.0,-0.1,-0.2,-0.5,-0.44,-0.48,0.57,0.0,0.0,0.0
1752855158298,98.0,-79.0,38.0,-10.0,-1.0,1.0,0.0,0.3,0.0,-0.5,-0.44,-0.48,0.57,0.0,0.0,0.0
1752855158547,94.0,-79.0,66.0,-10.0,-1.0,1.0,-0.1,0.5,0.0,-0.5,-0.43,-0.49,0.57,0.0,0.0,0.0
1752855158592,93.0,-79.0,68.0,-10.0,-1.0,1.0,-0.3,0.2,0.4,-0.5,-0.4,-0.55,0.53,0.0,0.0,0.0
1752855158625,92.0,-79.0,70.0,-10.0,-2.0,2.0,-0.7,-0.1,1.2,-0.51,-0.4,-0.56,0.53,0.0,0.0,0.0
1752855158665,91.0,-79.0,72.0,-10.0,-2.0,2.0,-0.0,0.2,1.1,-0.51,-0.39,-0.56,0.52,0.0,0.0,0.0
1752855158709,90.0,-78.0,73.0,-9.0,-1.0,1.0,0.8,0.7,0.9,-0.51,-0.38,-0.57,0.52,0.0,0.0,0.0
1752855158751,89.0,-78.0,74.0,-9.0,-1.0,2.0,1.0,0.8,1.2,-0.52,-0.38,-0.57,0.51,0.0,0.0,0.0
1752855159102,87.0,-79.0,60.0,-9.0,-2.0,1.0,0.1,-0.9,-0.5,-0.52,-0.38,-0.58,0.5,0.0,0.0,0.0
1752855159253,93.0,-71.0,33.0,-10.0,-2.0,2.0,-0.7,-0.6,-0.6,-0.55,-0.36,-0.49,0.58,0.0,0.0,0.0
1752855159286,94.0,-70.0,33.0,-10.0,-2.0,2.0,-0.7,-0.5,-0.5,-0.55,-0.35,-0.48,0.59,0.0,0.0,0.0
1752855159320,95.0,-69.0,33.0,-10.0,-2.0,3.0,-0.6,-0.4,-0.3,-0.54,-0.35,-0.48,0.59,0.0,0.0,0.0
1752855159361,96.0,-68.0,33.0,-9.0,-2.0,3.0,-0.2,-0.1,-0.4,-0.54,-0.34,-0.48,0.6,0.0,0.0,0.0
1752855159405,96.0,-68.0,34.0,-9.0,-2.0,3.0,-0.1,0.0,-0.4,-0.54,-0.34,-0.48,0.6,0.0,0.0,0.0
1752855159451,97.0,-68.0,35.0,-9.0,-2.0,3.0,-0.1,0.0,-0.3,-0.54,-0.34,-0.48,0.61,0.0,0.0,0.0
1752855159709,98.0,-67.0,36.0,-9.0,-2.0,3.0,0.0,-0.2,-0.2,-0.53,-0.34,-0.48,0.61,0.0,0.0,0.0
1752855159855,99.0,-68.0,34.0,-9.0,-2.0,3.0,0.0,-0.1,-0.1,-0.53,-0.35,-0.47,0.61,0.0,0.0,0.0
1752855160105,97.0,-70.0,31.0,-9.0,-2.0,3.0,0.2,0.1,-0.1,-0.53,-0.36,-0.47,0.61,0.0,0.0,0.0
1752855160252,93.0,-69.0,30.0,-9.0,-2.0,3.0,0.2,-0.1,0.1,-0.55,-0.35,-0.47,0.59,0.0,0.0,0.0
1752855160301,93.0,-69.0,31.0,-9.0,-2.0,3.0,0.1,-0.1,0.1,-0.56,-0.34,-0.48,0.59,0.0,0.0,0.0
1752855160349,93.0,-69.0,31.0,-9.0,-2.0,3.0,-0.0,0.0,0.1,-0.56,-0.34,-0.48,0.58,0.0,0.0,0.0
1752855160398,92.0,-69.0,32.0,-9.0,-2.0,3.0,-0.0,0.1,0.1,-0.56,-0.33,-0.49,0.58,0.0,0.0,0.0
1752855160449,92.0,-69.0,33.0,-9.0,-2.0,3.0,-0.1,0.2,0.1,-0.56,-0.33,-0.49,0.58,0.0,0.0,0.0
1752855160496,92.0,-68.0,33.0,-9.0,-2.0,3.0,-0.1,0.1,-0.0,-0.56,-0.33,-0.49,0.58,0.0,0.0,0.0
1752855160633,92.0,-68.0,33.0,-9.0,-2.0,3.0,-0.1,0.1,-0.1,-0.56,-0.32,-0.49,0.59,0.0,0.0,0.0
1752855160780,94.0,-67.0,37.0,-9.0,-2.0,3.0,0.0,0.2,0.0,-0.55,-0.31,-0.49,0.59,0.0,0.0,0.0
1752855160936,94.0,-67.0,38.0,-9.0,-2.0,3.0,0.1,-0.0,0.0,-0.55,-0.32,-0.49,0.59,0.0,0.0,0.0
1752855160982,95.0,-67.0,38.0,-9.0,-3.0,3.0,0.1,-0.2,0.1,-0.54,-0.32,-0.49,0.6,0.0,0.0,0.0
1752855161037,95.0,-67.0,37.0,-9.0,-3.0,3.0,0.2,-0.2,-0.2,-0.55,-0.32,-0.49,0.6,0.0,0.0,0.0
1752855161169,95.0,-66.0,37.0,-9.0,-3.0,3.0,-0.0,-0.1,0.0,-0.55,-0.31,-0.49,0.6,0.0,0.0,0.0
1752855161324,95.0,-65.0,39.0,-9.0,-2.0,3.0,0.0,0.3,0.1,-0.55,-0.31,-0.49,0.6,0.0,0.0,0.0
1752855161477,94.0,-65.0,39.0,-9.0,-3.0,3.0,0.0,0.0,0.1,-0.55,-0.3,-0.5,0.6,0.0,0.0,0.0
1752855161642,95.0,-64.0,39.0,-9.0,-3.0,3.0,0.0,-0.0,-0.1,-0.56,-0.29,-0.5,0.6,0.0,0.0,0.0
1752855161765,95.0,-62.0,39.0,-9.0,-3.0,3.0,0.0,0.0,-0.1,-0.56,-0.28,-0.5,0.6,0.0,0.0,0.0
1752855161920,95.0,-62.0,39.0,-9.0,-3.0,4.0,0.0,0.2,0.2,-0.56,-0.28,-0.49,0.61,0.0,0.0,0.0
1752855162062,95.0,-62.0,39.0,-9.0,-2.0,4.0,-0.1,0.4,0.1,-0.56,-0.27,-0.49,0.61,0.0,0.0,0.0
1752855162307,96.0,-63.0,34.0,-9.0,-2.0,4.0,-0.0,-0.0,0.2,-0.56,-0.28,-0.48,0.61,0.0,0.0,0.0
1752855162348,97.0,-62.0,33.0,-9.0,-3.0,4.0,0.0,-0.3,0.0,-0.55,-0.3,-0.47,0.62,0.0,0.0,0.0
1752855162740,106.0,-56.0,34.0,-8.0,-3.0,4.0,-0.1,0.4,-0.4,-0.52,-0.28,-0.44,0.68,0.0,0.0,0.0
1752855162776,107.0,-56.0,32.0,-9.0,1.0,6.0,-0.5,3.8,0.8,-0.51,-0.28,-0.43,0.69,0.0,0.0,0.0
1752855162823,109.0,-56.0,28.0,-8.0,2.0,4.0,-0.0,3.5,-1.0,-0.5,-0.3,-0.4,0.71,0.0,0.0,0.0
1752855162859,116.0,-57.0,11.0,-9.0,1.0,5.0,0.1,0.2,-0.3,-0.46,-0.38,-0.31,0.74,0.0,0.0,0.0
1752855162890,126.0,-59.0,-13.0,-9.0,-1.0,5.0,0.3,-4.3,2.8,-0.39,-0.47,-0.17,0.77,0.0,0.0,0.0
1752855162927,135.0,-61.0,-33.0,-9.0,-0.0,5.0,-2.1,-3.5,3.9,-0.32,-0.54,-0.05,0.78,0.0,0.0,0.0
1752855162976,145.0,-63.0,-49.0,-6.0,2.0,4.0,2.6,-1.5,1.6,-0.26,-0.58,0.02,0.77,0.0,0.0,0.0
1752855163026,151.0,-65.0,-56.0,-8.0,1.0,5.0,1.1,-2.3,3.1,-0.2,-0.61,0.08,0.76,0.0,0.0,0.0
1752855163058,160.0,-66.0,-65.0,-7.0,1.0,2.0,2.0,-0.7,3.2,-0.14,-0.63,0.13,0.75,0.0,0.0,0.0
1752855163093,167.0,-67.0,-70.0,-11.0,7.0,8.0,-3.5,3.0,3.1,-0.09,-0.63,0.18,0.75,0.0,0.0,0.0
1752855163134,173.0,-66.0,-72.0,-12.0,11.0,1.0,-2.0,4.2,-0.7,-0.05,-0.63,0.22,0.75,0.0,0.0,0.0
1752855163175,176.0,-64.0,-73.0,-9.0,5.0,-2.0,-0.4,0.5,-3.1,-0.03,-0.61,0.25,0.75,0.0,0.0,0.0
1752855163311,177.0,-62.0,-74.0,-8.0,4.0,-0.0,0.0,-1.7,0.4,-0.02,-0.59,0.28,0.75,0.0,0.0,0.0
1752855163360,195.0,-53.0,-104.0,-8.0,3.0,-3.0,0.3,-3.7,-0.8,0.08,-0.55,0.52,0.65,0.0,0.0,0.0
1752855163393,206.0,-53.0,-116.0,-9.0,2.0,-2.0,-1.8,-2.6,0.5,0.13,-0.54,0.58,0.59,0.0,0.0,0.0
1752855163435,228.0,-53.0,-135.0,-9.0,1.0,-3.0,-0.7,-2.4,1.7,0.2,-0.53,0.65,0.51,0.0,0.0,0.0
1752855163479,258.0,-52.0,-154.0,-4.0,1.0,-0.0,3.7,-0.7,5.2,0.28,-0.49,0.72,0.4,0.0,0.0,0.0
1752855163526,296.0,-53.0,-174.0,-7.0,0.0,-7.0,2.0,-2.1,-0.7,0.36,-0.43,0.79,0.27,0.0,0.0,0.0
1752855163570,327.0,-53.0,172.0,-11.0,-4.0,-11.0,-3.5,-3.1,-5.5,0.43,-0.34,0.82,0.13,0.0,0.0,0.0
1752855163615,341.0,-53.0,166.0,-10.0,-3.0,-13.0,-2.0,0.2,-5.4,0.45,-0.3,0.83,0.08,0.0,0.0,0.0
1752855163645,340.0,-52.0,166.0,-8.0,-6.0,-10.0,0.1,-1.4,-3.5,0.44,-0.31,0.84,0.08,0.0,0.0,0.0
1752855163681,327.0,-48.0,173.0,-9.0,2.0,4.0,-1.6,2.6,10.4,0.4,-0.35,0.84,0.11,0.0,0.0,0.0
1752855163723,312.0,-46.0,178.0,-6.0,1.0,-3.0,1.5,1.5,4.2,0.37,-0.39,0.83,0.15,0.0,0.0,0.0
1752855163764,309.0,-46.0,179.0,-8.0,-1.0,-5.0,-1.4,-0.4,2.4,0.35,-0.41,0.83,0.17,0.0,0.0,0.0
1752855163808,318.0,-45.0,176.0,-8.0,-2.0,-6.0,-1.5,-1.2,0.1,0.36,-0.4,0.83,0.15,0.0,0.0,0.0
1752855164052,221.0,-51.0,-141.0,-9.0,7.0,-6.0,-1.2,2.8,-1.8,0.19,-0.57,0.65,0.46,0.0,0.0,0.0
1752855164087,201.0,-52.0,-129.0,-9.0,14.0,-1.0,-0.9,9.3,2.8,0.12,-0.61,0.58,0.53,0.0,0.0,0.0
1752855164138,185.0,-50.0,-119.0,-8.0,-1.0,2.0,-0.4,-7.1,4.1,0.04,-0.63,0.52,0.58,0.0,0.0,0.0
1752855164487,126.0,-48.0,-39.0,-8.0,2.0,5.0,-1.0,-1.4,-0.3,-0.38,-0.5,0.04,0.77,0.0,0.0,0.0
1752855164531,118.0,-47.0,-22.0,-6.0,3.0,-2.0,1.3,1.0,-8.7,-0.45,-0.44,-0.06,0.77,0.0,0.0,0.0
1752855164574,112.0,-46.0,-11.0,-6.0,-6.0,18.0,0.5,-6.4,10.8,-0.51,-0.37,-0.16,0.76,0.0,0.0,0.0
1752855164608,107.0,-43.0,-1.0,-7.0,-2.0,9.0,-0.6,-3.4,0.3,-0.55,-0.3,-0.22,0.75,0.0,0.0,0.0
1752855164649,104.0,-39.0,4.0,-6.0,-2.0,7.0,-2.1,2.1,-0.6,-0.58,-0.25,-0.23,0.74,0.0,0.0,0.0
1752855164691,103.0,-34.0,12.0,-6.0,-2.0,8.0,-1.2,0.6,-0.1,-0.59,-0.19,-0.24,0.74,0.0,0.0,0.0
1752855164739,101.0,-29.0,26.0,-5.0,-8.0,7.0,-0.2,-1.6,1.7,-0.6,-0.1,-0.3,0.74,0.0,0.0,0.0
1752855164876,102.0,-15.0,69.0,-3.0,-6.0,4.0,-0.7,2.4,0.8,-0.52,0.22,-0.52,0.64,0.0,0.0,0.0
1752855164923,104.0,-13.0,67.0,-1.0,-8.0,4.0,0.8,1.1,0.6,-0.51,0.22,-0.51,0.65,0.0,0.0,0.0
1752855164960,105.0,-12.0,68.0,-3.0,-7.0,4.0,-0.0,0.3,0.0,-0.5,0.23,-0.51,0.66,0.0,0.0,0.0
1752855165007,106.0,-11.0,71.0,-1.0,-9.0,3.0,0.6,-0.1,0.1,-0.49,0.25,-0.52,0.65,0.0,0.0,0.0
1752855165043,108.0,-10.0,73.0,-3.0,-9.0,3.0,-1.6,-0.0,0.3,-0.47,0.26,-0.54,0.65,0.0,0.0,0.0
1752855165077,109.0,-8.0,75.0,-1.0,-9.0,3.0,-0.0,0.5,0.7,-0.46,0.27,-0.54,0.65,0.0,0.0,0.0
1752855165128,110.0,-8.0,78.0,-1.0,-10.0,1.0,0.4,-0.5,-0.7,-0.45,0.29,-0.56,0.64,0.0,0.0,0.0
1752855165159,111.0,-6.0,81.0,-1.0,-9.0,2.0,-0.5,0.5,0.2,-0.43,0.31,-0.57,0.62,0.0,0.0,0.0
1752855165195,112.0,-5.0,83.0,-1.0,-9.0,1.0,-0.6,0.5,0.5,-0.42,0.32,-0.58,0.62,0.0,0.0,0.0
1752855165245,113.0,-4.0,84.0,-1.0,-9.0,1.0,-0.5,0.9,0.4,-0.41,0.33,-0.59,0.62,0.0,0.0,0.0
1752855165279,114.0,-3.0,85.0,-0.0,-9.0,1.0,0.1,0.5,-0.1,-0.4,0.33,-0.59,0.62,0.0,0.0,0.0
1752855165330,115.0,-3.0,85.0,-0.0,-9.0,1.0,0.3,0.6,0.4,-0.39,0.33,-0.59,0.62,0.0,0.0,0.0
1752855165363,117.0,-2.0,84.0,1.0,-12.0,1.0,0.1,-0.3,0.1,-0.39,0.32,-0.58,0.64,0.0,0.0,0.0
1752855165397,118.0,-2.0,82.0,-1.0,-10.0,4.0,-0.8,-0.1,3.2,-0.39,0.32,-0.58,0.64,0.0,0.0,0.0
1752855165447,120.0,-1.0,84.0,-0.0,-10.0,3.0,-0.4,-0.1,1.8,-0.38,0.33,-0.58,0.65,0.0,0.0,0.0
1752855165480,121.0,1.0,85.0,0.0,-10.0,2.0,-0.2,0.2,0.9,-0.37,0.34,-0.58,0.64,0.0,0.0,0.0
1752855165521,122.0,2.0,85.0,1.0,-8.0,0.0,0.3,1.5,-0.5,-0.36,0.35,-0.58,0.64,0.0,0.0,0.0
1752855165566,123.0,3.0,84.0,1.0,-8.0,1.0,0.2,0.8,0.8,-0.36,0.35,-0.57,0.65,0.0,0.0,0.0
1752855165607,123.0,4.0,82.0,1.0,-8.0,2.0,0.5,1.3,0.2,-0.36,0.35,-0.55,0.66,0.0,0.0,0.0
1752855165636,124.0,5.0,81.0,1.0,-9.0,2.0,0.5,0.7,0.3,-0.36,0.35,-0.55,0.67,0.0,0.0,0.0
1752855165679,125.0,5.0,82.0,1.0,-9.0,2.0,0.2,1.0,0.2,-0.35,0.35,-0.55,0.67,0.0,0.0,0.0
1752855165719,125.0,5.0,82.0,1.0,-10.0,2.0,0.3,-0.0,0.7,-0.35,0.35,-0.55,0.67,0.0,0.0,0.0
1752855165758,125.0,5.0,82.0,1.0,-9.0,2.0,-0.0,0.3,0.5,-0.35,0.35,-0.56,0.67,0.0,0.0,0.0
1752855165897,128.0,5.0,80.0,1.0,-10.0,2.0,0.1,-0.7,0.5,-0.34,0.34,-0.56,0.68,0.0,0.0,0.0
1752855165938,129.0,5.0,81.0,1.0,-9.0,2.0,-0.3,0.4,0.3,-0.33,0.33,-0.56,0.69,0.0,0.0,0.0
1752855165981,130.0,6.0,83.0,2.0,-9.0,1.0,0.5,0.3,-0.1,-0.32,0.34,-0.57,0.68,0.0,0.0,0.0
1752855166020,131.0,7.0,84.0,1.0,-9.0,1.0,0.1,0.8,0.1,-0.31,0.35,-0.57,0.68,0.0,0.0,0.0
1752855166058,132.0,7.0,83.0,1.0,-9.0,1.0,-0.1,1.0,0.9,-0.3,0.34,-0.57,0.68,0.0,0.0,0.0
1752855166095,133.0,8.0,82.0,2.0,-10.0,2.0,1.7,5.8,-3.8,-0.3,0.34,-0.56,0.69,0.0,0.0,0.0
1752855166136,133.0,8.0,81.0,2.0,-10.0,3.0,0.4,-0.5,0.9,-0.3,0.34,-0.56,0.7,0.0,0.0,0.0
1752855166278,133.0,7.0,81.0,0.0,-5.0,2.0,-0.9,4.2,0.6,-0.3,0.33,-0.56,0.7,0.0,0.0,0.0
1752855166323,132.0,6.0,80.0,2.0,-13.0,1.0,0.8,-3.2,-0.4,-0.31,0.32,-0.56,0.7,0.0,0.0,0.0
1752855166359,131.0,5.0,79.0,1.0,-10.0,2.0,-0.8,0.4,1.1,-0.32,0.32,-0.55,0.7,0.0,0.0,0.0
1752855166396,130.0,5.0,78.0,1.0,-11.0,3.0,-0.6,-0.3,1.3,-0.32,0.31,-0.55,0.7,0.0,0.0,0.0
1752855166441,130.0,4.0,78.0,1.0,-11.0,2.0,0.2,-1.0,-0.5,-0.33,0.31,-0.55,0.7,0.0,0.0,0.0
1752855166480,130.0,5.0,78.0,0.0,-10.0,1.0,-0.7,-0.3,-1.2,-0.33,0.31,-0.55,0.7,0.0,0.0,0.0
1752855166521,130.0,5.0,78.0,1.0,-9.0,3.0,0.1,0.8,0.8,-0.33,0.31,-0.55,0.7,0.0,0.0,0.0
1752855166667,130.0,5.0,78.0,1.0,-2.0,-3.0,-0.3,-0.9,0.5,-0.33,0.31,-0.55,0.7,0.0,0.0,0.0
1752855166710,130.0,3.0,76.0,0.0,-9.0,2.0,-0.1,0.2,0.1,-0.33,0.29,-0.55,0.71,0.0,0.0,0.0
1752855166747,130.0,3.0,76.0,0.0,-8.0,2.0,-0.2,0.6,-0.1,-0.33,0.29,-0.55,0.71,0.0,0.0,0.0
1752855166787,130.0,3.0,77.0,0.0,-7.0,1.0,0.0,1.8,-1.3,-0.33,0.29,-0.55,0.71,0.0,0.0,0.0
1752855166831,131.0,2.0,77.0,-0.0,1.0,-0.0,-0.8,10.1,-2.4,-0.33,0.28,-0.55,0.71,0.0,0.0,0.0
1752855166876,130.0,2.0,77.0,1.0,-7.0,1.0,-0.9,0.2,-0.3,-0.33,0.28,-0.55,0.71,0.0,0.0,0.0
1752855166916,131.0,2.0,77.0,0.0,-9.0,2.0,-0.3,0.2,0.2,-0.33,0.28,-0.55,0.71,0.0,0.0,0.0
1752855166952,131.0,2.0,77.0,0.0,-9.0,2.0,-0.3,0.4,0.2,-0.33,0.28,-0.55,0.71,0.0,0.0,0.0
1752855166993,131.0,2.0,77.0,0.0,-9.0,2.0,-0.3,0.3,0.1,-0.33,0.28,-0.56,0.71,0.0,0.0,0.0
1752855167033,131.0,2.0,77.0,0.0,-9.0,2.0,-0.3,0.3,0.2,-0.33,0.28,-0.55,0.71,0.0,0.0,0.0
1752855167275,130.0,2.0,77.0,0.0,-9.0,2.0,-0.2,0.2,0.2,-0.33,0.28,-0.55,0.71,0.0,0.0,0.0
1752855167323,130.0,1.0,76.0,0.0,-9.0,2.0,-0.2,0.3,0.1,-0.33,0.28,-0.55,0.71,0.0,0.0,0.0
1752855167374,130.0,1.0,76.0,0.0,-9.0,2.0,-0.2,0.2,0.2,-0.33,0.27,-0.55,0.71,0.0,0.0,0.0
1752855167413,128.0,1.0,76.0,0.0,-9.0,2.0,-0.2,0.2,0.2,-0.34,0.28,-0.55,0.71,0.0,0.0,0.0
1752855167453,127.0,1.0,76.0,0.0,-9.0,2.0,-0.2,0.2,0.1,-0.35,0.29,-0.55,0.7,0.0,0.0,0.0
1752855167498,126.0,1.0,76.0,0.0,-9.0,2.0,-0.2,0.2,0.1,-0.36,0.29,-0.54,0.7,0.0,0.0,0.0
1752855167839,124.0,1.0,76.0,0.0,-9.0,2.0,-0.2,0.2,0.0,-0.36,0.29,-0.54,0.7,0.0,0.0,0.0
1752855167985,116.0,1.0,76.0,0.0,-9.0,2.0,-0.1,0.2,0.1,-0.41,0.33,-0.52,0.67,0.0,0.0,0.0
1752855168028,116.0,1.0,76.0,0.0,-9.0,2.0,-0.1,0.2,0.0,-0.42,0.33,-0.52,0.67,0.0,0.0,0.0
1752855168171,115.0,1.0,76.0,0.0,-9.0,2.0,-0.1,0.0,0.1,-0.42,0.34,-0.52,0.67,0.0,0.0,0.0
1752855168305,114.0,1.0,76.0,0.0,-9.0,2.0,-0.0,0.0,0.1,-0.43,0.34,-0.51,0.66,0.0,0.0,0.0
1752855168447,114.0,1.0,76.0,0.0,-9.0,2.0,-0.1,0.1,0.0,-0.43,0.34,-0.51,0.66,0.0,0.0,0.0
1752855168497,113.0,1.0,76.0,0.0,-9.0,2.0,-0.0,0.1,0.0,-0.44,0.35,-0.51,0.66,0.0,0.0,0.0
1752855168640,112.0,1.0,76.0,0.0,-9.0,2.0,-0.1,0.0,0.1,-0.44,0.35,-0.51,0.66,0.0,0.0,0.0
1752855168690,112.0,1.0,76.0,0.0,-9.0,3.0,-0.1,0.1,0.0,-0.44,0.35,-0.51,0.66,0.0,0.0,0.0
1752855168737,112.0,1.0,76.0,0.0,-9.0,2.0,-0.1,0.0,0.1,-0.44,0.35,-0.5,0.66,0.0,0.0,0.0
1752855168790,112.0,1.0,76.0,0.0,-9.0,3.0,-0.1,0.1,0.1,-0.44,0.35,-0.5,0.65,0.0,0.0,0.0
1752855168941,112.0,1.0,76.0,0.0,-9.0,3.0,-0.1,0.0,0.1,-0.44,0.35,-0.5,0.65,0.0,0.0,0.0
1752855168976,112.0,1.0,76.0,0.0,-9.0,3.0,-0.0,0.0,0.1,-0.44,0.35,-0.5,0.65,0.0,0.0,0.0
1752855169023,112.0,1.0,76.0,0.0,-9.0,2.0,-0.1,0.1,0.0,-0.44,0.35,-0.5,0.65,0.0,0.0,0.0
1752855169059,112.0,1.0,76.0,0.0,-9.0,2.0,-0.1,0.1,0.1,-0.44,0.35,-0.5,0.65,0.0,0.0,0.0
1752855169093,112.0,1.0,76.0,0.0,-9.0,3.0,-0.1,0.1,0.1,-0.44,0.35,-0.5,0.65,0.0,0.0,0.0
1752855169346,112.0,1.0,76.0,0.0,-9.0,3.0,-0.1,0.1,0.1,-0.44,0.35,-0.5,0.65,0.0,0.0,0.0
1752855169628,111.0,1.0,76.0,0.0,-9.0,2.0,-0.1,0.1,0.1,-0.44,0.35,-0.5,0.65,0.0,0.0,0.0
1752855169827,111.0,1.0,76.0,0.0,-9.0,2.0,-0.1,0.1,0.1,-0.45,0.35,-0.5,0.65,0.0,0.0,0.0
1752855169868,111.0,1.0,76.0,0.0,-9.0,3.0,-0.0,0.1,0.1,-0.45,0.35,-0.5,0.65,0.0,0.0,0.0
1752855169905,111.0,1.0,76.0,0.0,-9.0,2.0,-0.1,0.1,0.1,-0.45,0.35,-0.5,0.65,0.0,0.0,0.0
1752855169945,111.0,1.0,76.0,0.0,-9.0,2.0,-0.0,0.1,0.1,-0.45,0.35,-0.5,0.65,0.0,0.0,0.0
1752855170089,111.0,1.0,76.0,0.0,-9.0,2.0,-0.1,0.1,0.1,-0.45,0.35,-0.5,0.65,0.0,0.0,0.0
1752855170129,111.0,1.0,76.0,0.0,-9.0,3.0,-0.1,0.1,0.1,-0.45,0.35,-0.5,0.65,0.0,0.0,0.0
1752855170180,111.0,1.0,76.0,0.0,-9.0,2.0,-0.1,0.1,0.1,-0.45,0.35,-0.5,0.65,0.0,0.0,0.0
1752855170213,111.0,1.0,76.0,0.0,-9.0,2.0,-0.1,0.1,0.0,-0.45,0.35,-0.5,0.65,0.0,0.0,0.0
1752855170448,111.0,1.0,76.0,0.0,-9.0,2.0,-0.1,0.1,0.0,-0.45,0.35,-0.5,0.65,0.0,0.0,0.0
1752855170495,111.0,1.0,76.0,0.0,-9.0,2.0,-0.1,0.1,0.0,-0.45,0.35,-0.5,0.65,0.0,0.0,0.0
1752855170650,111.0,1.0,76.0,0.0,-9.0,3.0,-0.1,0.1,0.1,-0.45,0.35,-0.5,0.65,0.0,0.0,0.0
1752855170683,111.0,1.0,76.0,0.0,-9.0,2.0,-0.1,0.1,0.1,-0.45,0.35,-0.5,0.65,0.0,0.0,0.0
1752855170731,111.0,1.0,76.0,0.0,-9.0,3.0,-0.1,0.1,0.1,-0.45,0.35,-0.5,0.65,0.0,0.0,0.0
1752855170764,111.0,1.0,76.0,0.0,-9.0,3.0,-0.1,0.1,0.1,-0.45,0.35,-0.5,0.65,0.0,0.0,0.0
1752855170902,111.0,1.0,76.0,0.0,-9.0,3.0,-0.0,0.1,0.1,-0.45,0.35,-0.5,0.65,0.0,0.0,0.0
1752855170949,111.0,1.0,76.0,0.0,-9.0,2.0,-0.0,0.0,0.1,-0.45,0.35,-0.5,0.65,0.0,0.0,0.0
1752855171104,111.0,1.0,76.0,0.0,-9.0,3.0,-0.1,0.1,0.1,-0.45,0.35,-0.5,0.65,0.0,0.0,0.0
1752855171138,111.0,1.0,76.0,0.0,-9.0,2.0,-0.0,0.1,0.1,-0.45,0.35,-0.5,0.65,0.0,0.0,0.0
1752855171173,111.0,1.0,76.0,0.0,-9.0,2.0,-0.1,0.1,0.1,-0.45,0.35,-0.5,0.65,0.0,0.0,0.0
1752855171219,111.0,1.0,76.0,0.0,-9.0,3.0,-0.1,0.1,0.1,-0.45,0.35,-0.5,0.65,0.0,0.0,0.0
1752855171457,111.0,1.0,76.0,0.0,-9.0,2.0,-0.1,0.1,0.0,-0.45,0.35,-0.5,0.65,0.0,0.0,0.0
1752855171507,111.0,1.0,76.0,0.0,-9.0,2.0,-0.1,0.1,0.1,-0.45,0.35,-0.5,0.65,0.0,0.0,0.0
1752855171540,111.0,1.0,76.0,0.0,-9.0,2.0,-0.1,0.1,0.0,-0.45,0.35,-0.5,0.65,0.0,0.0,0.0
1752855171582,111.0,1.0,76.0,0.0,-9.0,3.0,-0.1,0.0,0.1,-0.45,0.35,-0.5,0.65,0.0,0.0,0.0
1752855171621,111.0,1.0,76.0,0.0,-9.0,2.0,-0.1,0.1,0.1,-0.45,0.35,-0.5,0.65,0.0,0.0,0.0
1752855171661,111.0,1.0,76.0,0.0,-9.0,2.0,-0.1,0.1,0.1,-0.45,0.35,-0.5,0.65,0.0,0.0,0.0
1752855171800,111.0,1.0,76.0,0.0,-9.0,2.0,-0.1,0.1,0.0,-0.45,0.35,-0.5,0.65,0.0,0.0,0.0
1752855172045,111.0,1.0,76.0,0.0,-9.0,3.0,-0.1,0.1,0.0,-0.45,0.35,-0.5,0.65,0.0,0.0,0.0
1752855172389,111.0,1.0,76.0,0.0,-9.0,2.0,-0.1,0.0,0.1,-0.45,0.35,-0.5,0.65,0.0,0.0,0.0
1752855172530,111.0,1.0,76.0,0.0,-9.0,2.0,-0.1,0.0,0.1,-0.45,0.35,-0.5,0.65,0.0,0.0,0.0
1752855172565,111.0,1.0,76.0,0.0,-9.0,2.0,-0.0,0.0,0.1,-0.45,0.35,-0.5,0.65,0.0,0.0,0.0
1752855172606,111.0,1.0,76.0,0.0,-9.0,2.0,-0.1,0.0,0.0,-0.45,0.35,-0.5,0.65,0.0,0.0,0.0
1752855172757,111.0,1.0,76.0,0.0,-9.0,2.0,-0.1,0.1,0.0,-0.45,0.35,-0.5,0.65,0.0,0.0,0.0
1752855172905,111.0,1.0,76.0,0.0,-9.0,2.0,-0.1,0.1,0.0,-0.45,0.35,-0.5,0.65,0.0,0.0,0.0
1752855172939,111.0,1.0,76.0,0.0,-9.0,2.0,-0.1,0.1,0.0,-0.45,0.35,-0.5,0.65,0.0,0.0,0.0
1752855173088,111.0,1.0,76.0,0.0,-9.0,2.0,-0.1,0.1,0.0,-0.45,0.35,-0.5,0.65,0.0,0.0,0.0
1752855173121,111.0,1.0,76.0,0.0,-9.0,2.0,-0.0,0.0,0.1,-0.45,0.35,-0.5,0.65,0.0,0.0,0.0
1752855173264,111.0,1.0,76.0,0.0,-9.0,3.0,-0.1,0.0,0.1,-0.45,0.35,-0.5,0.65,0.0,0.0,0.0
1752855173298,111.0,1.0,76.0,0.0,-9.0,3.0,-0.1,0.0,0.1,-0.45,0.35,-0.5,0.65,0.0,0.0,0.0
1752855173347,111.0,1.0,76.0,0.0,-9.0,3.0,-0.1,0.0,0.1,-0.45,0.35,-0.5,0.65,0.0,0.0,0.0
1752855173381,111.0,1.0,76.0,0.0,-9.0,2.0,-0.0,0.0,0.1,-0.45,0.35,-0.5,0.65,0.0,0.0,0.0
1752855173415,111.0,1.0,76.0,0.0,-9.0,2.0,-0.1,0.1,0.1,-0.45,0.35,-0.5,0.65,0.0,0.0,0.0
1752855173562,111.0,1.0,76.0,0.0,-9.0,2.0,-0.0,0.1,0.0,-0.45,0.35,-0.5,0.65,0.0,0.0,0.0
1752855173700,111.0,1.0,76.0,0.0,-9.0,2.0,-0.1,0.1,0.1,-0.45,0.35,-0.5,0.65,0.0,0.0,0.0
1752855173739,111.0,1.0,76.0,0.0,-9.0,2.0,-0.1,0.1,0.1,-0.45,0.35,-0.5,0.65,0.0,0.0,0.0
1752855173779,111.0,1.0,76.0,0.0,-9.0,3.0,-0.1,0.1,0.0,-0.45,0.35,-0.5,0.65,0.0,0.0,0.0
1752855173816,111.0,1.0,76.0,0.0,-9.0,2.0,-0.1,0.1,0.1,-0.45,0.35,-0.5,0.65,0.0,0.0,0.0
1752855173856,111.0,1.0,76.0,0.0,-9.0,3.0,-0.1,0.1,0.0,-0.45,0.35,-0.5,0.65,0.0,0.0,0.0
1752855173906,111.0,1.0,76.0,0.0,-9.0,2.0,-0.1,0.0,0.0,-0.45,0.35,-0.5,0.65,0.0,0.0,0.0
1752855174053,111.0,1.0,76.0,0.0,-9.0,3.0,-0.1,0.0,0.1,-0.45,0.35,-0.5,0.65,0.0,0.0,0.0
1752855174101,111.0,1.0,76.0,0.0,-9.0,2.0,-0.0,0.1,0.1,-0.45,0.35,-0.5,0.65,0.0,0.0,0.0
1752855174144,111.0,1.0,76.0,0.0,-9.0,2.0,-0.1,0.1,0.1,-0.45,0.35,-0.5,0.65,0.0,0.0,0.0
1752855174170,111.0,1.0,76.0,0.0,-10.0,2.0,-0.1,0.1,0.1,-0.45,0.35,-0.5,0.65,0.0,0.0,0.0
1752855174419,111.0,1.0,76.0,0.0,-9.0,2.0,-0.1,0.1,0.0,-0.45,0.35,-0.5,0.65,0.0,0.0,0.0
1752855174452,111.0,1.0,76.0,0.0,-9.0,3.0,-0.0,0.1,0.0,-0.45,0.35,-0.5,0.65,0.0,0.0,0.0
1752855174700,111.0,1.0,76.0,-0.0,-9.0,3.0,-0.1,0.1,0.1,-0.45,0.35,-0.5,0.65,0.0,0.0,0.0
1752855174736,111.0,0.0,76.0,-0.0,-9.0,3.0,-0.1,0.0,0.1,-0.45,0.35,-0.5,0.65,0.0,0.0,0.0
1752855174769,111.0,0.0,76.0,-0.0,-9.0,2.0,-0.1,0.0,0.1,-0.45,0.35,-0.5,0.65,0.0,0.0,0.0
1752855174916,111.0,0.0,76.0,-0.0,-9.0,2.0,-0.0,0.0,0.0,-0.45,0.35,-0.5,0.65,0.0,0.0,0.0
1752855175266,111.0,0.0,76.0,-0.0,-9.0,3.0,-0.1,0.1,0.1,-0.45,0.35,-0.5,0.65,0.0,0.0,0.0
1752855175303,111.0,0.0,76.0,-0.0,-9.0,3.0,-0.1,0.0,0.1,-0.45,0.35,-0.5,0.65,0.0,0.0,0.0
1752855175354,111.0,0.0,76.0,-0.0,-9.0,3.0,-0.1,0.1,0.1,-0.45,0.35,-0.5,0.65,0.0,0.0,0.0
1752855175387,111.0,0.0,76.0,-0.0,-9.0,3.0,-0.1,0.1,0.1,-0.45,0.35,-0.5,0.65,0.0,0.0,0.0
1752855175420,111.0,0.0,76.0,-0.0,-9.0,3.0,-0.1,0.1,0.1,-0.45,0.35,-0.5,0.65,0.0,0.0,0.0
1752855175467,111.0,0.0,76.0,-0.0,-9.0,3.0,-0.1,0.1,0.1,-0.45,0.35,-0.5,0.65,0.0,0.0,0.0
1752855175504,111.0,0.0,76.0,-0.0,-9.0,3.0,-0.1,0.0,0.1,-0.45,0.35,-0.5,0.65,0.0,0.0,0.0
1752855175645,111.0,0.0,76.0,-0.0,-9.0,3.0,-0.1,0.0,0.1,-0.45,0.35,-0.5,0.65,0.0,0.0,0.0
1752855175698,111.0,0.0,76.0,-0.0,-9.0,2.0,-0.1,0.0,0.1,-0.45,0.35,-0.5,0.65,0.0,0.0,0.0
1752855175721,111.0,0.0,76.0,-0.0,-9.0,3.0,-0.1,0.0,0.1,-0.45,0.35,-0.5,0.65,0.0,0.0,0.0
1752855175765,111.0,0.0,76.0,-0.0,-9.0,3.0,-0.1,0.0,0.1,-0.45,0.35,-0.5,0.65,0.0,0.0,0.0
1752855176015,111.0,0.0,76.0,-0.0,-9.0,3.0,-0.1,0.1,0.1,-0.45,0.35,-0.5,0.65,0.0,0.0,0.0
1752855176054,111.0,0.0,76.0,-0.0,-9.0,3.0,-0.1,0.1,0.1,-0.45,0.35,-0.5,0.65,0.0,0.0,0.0
1752855176089,111.0,0.0,76.0,-0.0,-9.0,3.0,-0.1,0.1,0.1,-0.45,0.35,-0.5,0.65,0.0,0.0,0.0
1752855176128,111.0,0.0,76.0,-0.0,-9.0,3.0,-0.1,0.1,0.1,-0.45,0.35,-0.5,0.65,0.0,0.0,0.0
1752855176164,111.0,0.0,76.0,-0.0,-9.0,3.0,-0.1,0.0,0.1,-0.45,0.35,-0.5,0.65,0.0,0.0,0.0
1752855176207,111.0,0.0,76.0,-0.0,-9.0,2.0,-0.1,0.1,0.0,-0.45,0.35,-0.5,0.65,0.0,0.0,0.0
1752855176460,111.0,0.0,76.0,-0.0,-9.0,3.0,-0.1,0.0,0.1,-0.45,0.35,-0.5,0.65,0.0,0.0,0.0
1752855176611,111.0,0.0,76.0,0.0,-9.0,3.0,-0.1,0.0,0.2,-0.45,0.35,-0.5,0.65,0.0,0.0,0.0
1752855176645,111.0,0.0,76.0,-0.0,-9.0,2.0,-0.1,0.0,0.1,-0.45,0.35,-0.5,0.65,0.0,0.0,0.0
1752855176678,111.0,0.0,76.0,-0.0,-9.0,3.0,-0.1,0.1,0.0,-0.45,0.35,-0.5,0.65,0.0,0.0,0.0
1752855176712,111.0,0.0,76.0,0.0,-9.0,2.0,-0.1,0.1,0.0,-0.45,0.35,-0.5,0.65,0.0,0.0,0.0
1752855176860,111.0,0.0,76.0,-0.0,-9.0,3.0,-0.1,0.1,0.1,-0.45,0.35,-0.5,0.65,0.0,0.0,0.0
1752855176999,111.0,0.0,76.0,0.0,-9.0,3.0,-0.1,0.1,0.1,-0.45,0.35,-0.5,0.65,0.0,0.0,0.0
1752855177047,111.0,0.0,76.0,-0.0,-9.0,3.0,-0.1,0.1,0.1,-0.45,0.35,-0.5,0.65,0.0,0.0,0.0
1752855177083,111.0,0.0,76.0,-0.0,-9.0,3.0,-0.1,0.1,0.1,-0.45,0.35,-0.5,0.65,0.0,0.0,0.0
1752855177117,111.0,0.0,76.0,-0.0,-9.0,3.0,-0.1,0.1,0.1,-0.45,0.35,-0.5,0.65,0.0,0.0,0.0
1752855177258,111.0,0.0,76.0,-0.0,-9.0,2.0,-0.1,0.1,0.1,-0.45,0.35,-0.5,0.65,0.0,0.0,0.0
1752855177411,111.0,0.0,76.0,-0.0,-9.0,3.0,-0.1,0.0,0.1,-0.45,0.35,-0.5,0.65,0.0,0.0,0.0
1752855177446,111.0,0.0,76.0,-0.0,-9.0,3.0,-0.1,0.1,0.0,-0.45,0.35,-0.5,0.65,0.0,0.0,0.0
1752855177695,112.0,0.0,76.0,-0.0,-9.0,3.0,-0.1,0.1,0.1,-0.44,0.35,-0.51,0.65,0.0,0.0,0.0
1752855177726,113.0,0.0,76.0,-0.0,-9.0,3.0,-0.1,0.1,0.1,-0.44,0.34,-0.51,0.66,0.0,0.0,0.0
1752855177766,113.0,0.0,76.0,-0.0,-9.0,3.0,-0.1,0.1,0.1,-0.44,0.34,-0.51,0.66,0.0,0.0,0.0
1752855177910,113.0,0.0,76.0,-0.0,-9.0,2.0,-0.1,0.1,0.0,-0.44,0.34,-0.51,0.66,0.0,0.0,0.0
1752855177951,113.0,0.0,76.0,-0.0,-9.0,3.0,-0.1,0.0,0.1,-0.44,0.34,-0.51,0.66,0.0,0.0,0.0
1752855177996,113.0,0.0,76.0,0.0,-9.0,3.0,-0.1,0.1,0.1,-0.44,0.34,-0.51,0.66,0.0,0.0,0.0
1752855178030,113.0,0.0,76.0,-0.0,-9.0,3.0,-0.1,0.0,0.1,-0.43,0.34,-0.51,0.66,0.0,0.0,0.0
1752855178076,114.0,0.0,76.0,-0.0,-9.0,2.0,-0.1,0.0,0.1,-0.43,0.34,-0.51,0.66,0.0,0.0,0.0
1752855178112,114.0,0.0,76.0,-0.0,-9.0,3.0,-0.1,0.0,0.1,-0.43,0.34,-0.51,0.66,0.0,0.0,0.0
1752855178353,114.0,0.0,76.0,-0.0,-9.0,3.0,-0.1,0.0,0.1,-0.43,0.34,-0.51,0.66,0.0,0.0,0.0
1752855178397,114.0,0.0,76.0,-0.0,-9.0,2.0,-0.1,0.1,0.1,-0.43,0.34,-0.51,0.66,0.0,0.0,0.0
1752855178431,114.0,0.0,76.0,-0.0,-10.0,3.0,0.1,0.0,-0.3,-0.43,0.34,-0.51,0.66,0.0,0.0,0.0
1752855178574,114.0,0.0,76.0,0.0,-9.0,4.0,0.0,0.0,1.6,-0.43,0.34,-0.51,0.66,0.0,0.0,0.0
1752855178614,114.0,0.0,74.0,0.0,-12.0,3.0,0.2,-2.2,0.3,-0.43,0.33,-0.5,0.67,0.0,0.0,0.0
1752855178666,114.0,0.0,72.0,-0.0,-11.0,2.0,0.2,-1.5,-0.3,-0.44,0.32,-0.49,0.68,0.0,0.0,0.0
1752855178703,114.0,0.0,70.0,1.0,-9.0,2.0,0.4,0.2,-0.9,-0.45,0.32,-0.48,0.69,0.0,0.0,0.0
1752855178749,115.0,1.0,70.0,-1.0,-8.0,-0.0,-1.7,2.6,-3.5,-0.44,0.32,-0.48,0.69,0.0,0.0,0.0
1752855178786,116.0,2.0,73.0,0.0,-7.0,2.0,0.2,1.7,0.6,-0.43,0.33,-0.49,0.68,0.0,0.0,0.0
1752855178819,117.0,3.0,75.0,1.0,-8.0,4.0,-1.7,1.6,2.6,-0.41,0.34,-0.51,0.68,0.0,0.0,0.0
1752855178869,118.0,3.0,77.0,0.0,-11.0,4.0,-0.2,-1.5,1.7,-0.4,0.35,-0.52,0.67,0.0,0.0,0.0
1752855178920,118.0,2.0,76.0,1.0,-8.0,5.0,0.4,1.0,2.1,-0.41,0.34,-0.51,0.67,0.0,0.0,0.0
1752855178953,117.0,2.0,74.0,0.0,-9.0,3.0,0.1,0.4,-0.5,-0.42,0.33,-0.5,0.68,0.0,0.0,0.0
1752855178986,115.0,1.0,70.0,-0.0,-9.0,4.0,-0.3,0.1,0.2,-0.44,0.31,-0.48,0.69,0.0,0.0,0.0
1752855179020,114.0,-1.0,65.0,-0.0,-9.0,5.0,-0.0,0.1,1.0,-0.46,0.29,-0.45,0.71,0.0,0.0,0.0
1752855179070,112.0,-2.0,60.0,-1.0,-9.0,4.0,-0.1,-0.4,-1.0,-0.48,0.26,-0.43,0.72,0.0,0.0,0.0
1752855179120,111.0,-4.0,58.0,-1.0,-9.0,5.0,-0.1,-0.5,-0.4,-0.5,0.25,-0.42,0.72,0.0,0.0,0.0
1752855179254,107.0,-14.0,53.0,-2.0,-8.0,7.0,0.2,-0.6,2.4,-0.51,0.23,-0.42,0.72,0.0,0.0,0.0
1752855179304,107.0,-18.0,51.0,-2.0,-8.0,7.0,-0.2,0.3,1.7,-0.53,0.11,-0.43,0.72,0.0,0.0,0.0
1752855179538,109.0,-39.0,39.0,-6.0,-5.0,5.0,-0.2,0.1,-1.7,-0.53,0.07,-0.43,0.72,0.0,0.0,0.0
1752855179572,110.0,-42.0,38.0,-7.0,-4.0,5.0,0.3,0.7,-0.8,-0.51,-0.16,-0.43,0.73,0.0,0.0,0.0
1752855179718,112.0,-54.0,35.0,-7.0,-3.0,5.0,0.7,-0.1,-0.0,-0.5,-0.2,-0.43,0.72,0.0,0.0,0.0
1752855179759,112.0,-55.0,35.0,-8.0,-3.0,4.0,0.0,-0.3,-0.3,-0.48,-0.29,-0.43,0.71,0.0,0.0,0.0
1752855179799,113.0,-57.0,34.0,-8.0,-3.0,4.0,0.6,-0.2,-0.7,-0.47,-0.31,-0.42,0.71,0.0,0.0,0.0
1752855179833,113.0,-58.0,33.0,-6.0,-3.0,4.0,0.6,0.4,-0.8,-0.47,-0.33,-0.42,0.71,0.0,0.0,0.0
1752855179877,114.0,-60.0,32.0,-8.0,-2.0,4.0,0.3,0.5,-0.3,-0.46,-0.34,-0.41,0.71,0.0,0.0,0.0
1752855180017,120.0,-62.0,24.0,-9.0,-2.0,4.0,-0.5,-0.4,-0.5,-0.43,-0.39,-0.36,0.73,0.0,0.0,0.0
1752855180061,121.0,-62.0,23.0,-9.0,-2.0,4.0,-0.6,-0.4,0.0,-0.41,-0.4,-0.35,0.74,0.0,0.0,0.0
1752855180207,129.0,-66.0,9.0,-10.0,-1.0,4.0,-0.6,-0.3,-0.1,-0.4,-0.42,-0.33,0.75,0.0,0.0,0.0
1752855180250,130.0,-67.0,4.0,-9.0,-1.0,4.0,0.0,-0.6,0.1,-0.35,-0.49,-0.25,0.76,0.0,0.0,0.0
1752855180293,131.0,-68.0,1.0,-9.0,-1.0,4.0,0.7,-0.6,1.0,-0.34,-0.51,-0.24,0.75,0.0,0.0,0.0
1752855180336,132.0,-70.0,-4.0,-8.0,-1.0,5.0,0.9,-1.3,1.2,-0.33,-0.53,-0.22,0.75,0.0,0.0,0.0
1752855180379,134.0,-71.0,-9.0,-8.0,-0.0,4.0,1.2,-1.0,1.1,-0.32,-0.54,-0.2,0.75,0.0,0.0,0.0
1752855180414,134.0,-71.0,-11.0,-9.0,-1.0,4.0,0.7,-1.3,1.2,-0.31,-0.55,-0.19,0.75,0.0,0.0,0.0
1752855180450,136.0,-72.0,-13.0,-8.0,-1.0,4.0,1.0,-1.2,0.7,-0.3,-0.56,-0.18,0.75,0.0,0.0,0.0
1752855180493,137.0,-73.0,-15.0,-9.0,-0.0,4.0,0.7,-1.1,1.2,-0.29,-0.57,-0.17,0.75,0.0,0.0,0.0
1752855180632,143.0,-74.0,-19.0,-9.0,1.0,3.0,0.2,-0.4,0.2,-0.28,-0.58,-0.17,0.75,0.0,0.0,0.0
1752855180769,148.0,-77.0,-20.0,-9.0,0.0,3.0,0.3,-0.3,0.7,-0.24,-0.6,-0.13,0.75,0.0,0.0,0.0
1752855180818,149.0,-77.0,-19.0,-9.0,0.0,3.0,0.2,-0.4,0.9,-0.21,-0.62,-0.12,0.75,0.0,0.0,0.0
1752855180968,152.0,-78.0,-9.0,-10.0,1.0,3.0,-0.3,-0.2,1.0,-0.2,-0.62,-0.13,0.75,0.0,0.0,0.0
1752855181116,155.0,-76.0,-8.0,-10.0,1.0,3.0,0.0,0.3,0.6,-0.17,-0.61,-0.12,0.77,0.0,0.0,0.0
1752855181160,156.0,-76.0,-9.0,-10.0,0.0,3.0,0.0,-0.2,0.4,-0.17,-0.61,-0.11,0.77,0.0,0.0,0.0
1752855181203,157.0,-75.0,-12.0,-9.0,0.0,3.0,0.1,-0.3,0.3,-0.16,-0.61,-0.09,0.78,0.0,0.0,0.0
1752855181236,159.0,-75.0,-14.0,-9.0,1.0,3.0,-0.0,-0.0,0.7,-0.15,-0.6,-0.07,0.78,0.0,0.0,0.0
1752855181383,160.0,-74.0,-16.0,-9.0,0.0,3.0,0.3,-0.7,0.4,-0.14,-0.6,-0.06,0.78,0.0,0.0,0.0
1752855181436,163.0,-73.0,-21.0,-9.0,1.0,3.0,0.3,-0.5,0.2,-0.12,-0.6,-0.03,0.79,0.0,0.0,0.0
1752855181671,166.0,-73.0,-23.0,-9.0,1.0,2.0,0.4,-0.3,-0.4,-0.11,-0.6,-0.02,0.79,0.0,0.0,0.0
1752855181708,167.0,-74.0,-23.0,-9.0,1.0,2.0,0.5,-0.5,0.3,-0.09,-0.61,0.0,0.79,0.0,0.0,0.0
1752855181750,167.0,-74.0,-23.0,-9.0,1.0,3.0,0.2,-0.4,0.6,-0.09,-0.61,0.0,0.79,0.0,0.0,0.0
1752855181789,167.0,-74.0,-23.0,-9.0,1.0,3.0,0.3,-0.1,0.5,-0.09,-0.61,-0.0,0.79,0.0,0.0,0.0
1752855181933,170.0,-74.0,-24.0,-9.0,1.0,3.0,0.3,-0.2,0.6,-0.08,-0.61,0.0,0.79,0.0,0.0,0.0
1752855181978,171.0,-74.0,-24.0,-9.0,1.0,3.0,0.6,0.2,0.4,-0.07,-0.61,0.02,0.79,0.0,0.0,0.0
1752855182129,172.0,-74.0,-25.0,-10.0,1.0,3.0,-0.1,-0.6,0.3,-0.06,-0.61,0.03,0.79,0.0,0.0,0.0
1752855182265,182.0,-73.0,-22.0,-10.0,1.0,2.0,-0.6,-0.5,-0.3,-0.02,-0.61,0.06,0.79,0.0,0.0,0.0
1752855182404,188.0,-73.0,-24.0,-10.0,0.0,2.0,-0.1,-0.8,-0.4,0.03,-0.6,0.09,0.79,0.0,0.0,0.0
1752855182653,197.0,-75.0,-24.0,-10.0,0.0,3.0,0.0,-0.5,0.7,0.12,-0.6,0.15,0.78,0.0,0.0,0.0
1752855182687,203.0,-78.0,-21.0,-9.0,0.0,2.0,0.6,-0.3,0.3,0.15,-0.61,0.17,0.76,0.0,0.0,0.0
1752855182724,205.0,-79.0,-21.0,-9.0,1.0,2.0,0.7,-0.1,0.1,0.16,-0.61,0.18,0.75,0.0,0.0,0.0
1752855182774,206.0,-79.0,-21.0,-9.0,0.0,2.0,0.5,-0.2,0.2,0.17,-0.61,0.19,0.75,0.0,0.0,0.0
1752855183015,210.0,-80.0,-22.0,-9.0,0.0,2.0,0.4,-0.5,0.3,0.18,-0.62,0.19,0.74,0.0,0.0,0.0
1752855183158,212.0,-80.0,-27.0,-10.0,-1.0,2.0,0.0,-0.9,0.0,0.21,-0.61,0.23,0.73,0.0,0.0,0.0
1752855183192,213.0,-80.0,-24.0,-9.0,0.0,1.0,0.2,-0.6,-0.2,0.21,-0.61,0.22,0.73,0.0,0.0,0.0
1752855183241,213.0,-81.0,-20.0,-10.0,-0.0,1.0,0.2,-0.4,-0.1,0.21,-0.61,0.22,0.73,0.0,0.0,0.0
1752855183583,213.0,-82.0,-7.0,-10.0,0.0,1.0,-0.0,-0.2,0.1,0.21,-0.62,0.2,0.72,0.0,0.0,0.0
1752855183718,212.0,-83.0,-1.0,-10.0,-1.0,2.0,-0.2,-0.8,0.5,0.21,-0.63,0.2,0.72,0.0,0.0,0.0
1752855183758,212.0,-83.0,-12.0,-9.0,-0.0,1.0,0.6,-0.1,-0.2,0.21,-0.63,0.2,0.72,0.0,0.0,0.0
1752855183805,213.0,-83.0,-11.0,-9.0,0.0,1.0,0.9,0.0,-0.2,0.21,-0.63,0.2,0.72,0.0,0.0,0.0
1752855183835,213.0,-83.0,-10.0,-9.0,0.0,1.0,0.8,0.0,-0.2,0.21,-0.63,0.2,0.72,0.0,0.0,0.0
1752855183887,213.0,-83.0,-9.0,-9.0,-0.0,2.0,0.3,-0.4,0.4,0.21,-0.63,0.2,0.72,0.0,0.0,0.0
1752855183923,213.0,-83.0,-9.0,-10.0,-0.0,2.0,0.1,-0.5,0.4,0.21,-0.63,0.2,0.72,0.0,0.0,0.0
1752855184071,213.0,-83.0,-7.0,-10.0,0.0,1.0,0.1,0.1,0.2,0.21,-0.63,0.2,0.72,0.0,0.0,0.0
1752855184126,212.0,-83.0,-7.0,-10.0,-0.0,2.0,-0.2,-0.5,0.3,0.21,-0.63,0.19,0.72,0.0,0.0,0.0
1752855184158,211.0,-82.0,-9.0,-10.0,-1.0,1.0,-0.1,-0.8,-0.2,0.2,-0.63,0.19,0.72,0.0,0.0,0.0
1752855184206,211.0,-82.0,-11.0,-10.0,-0.0,1.0,0.1,-0.6,-0.3,0.2,-0.63,0.19,0.73,0.0,0.0,0.0
1752855184241,210.0,-82.0,-11.0,-10.0,-0.0,1.0,0.2,-0.3,-0.1,0.2,-0.63,0.19,0.73,0.0,0.0,0.0
1752855184393,207.0,-82.0,-11.0,-10.0,0.0,2.0,0.0,-0.2,0.2,0.18,-0.64,0.17,0.73,0.0,0.0,0.0
1752855184626,202.0,-84.0,-2.0,-9.0,-1.0,1.0,0.7,-1.0,-0.2,0.17,-0.64,0.17,0.73,0.0,0.0,0.0
1752855184676,200.0,-84.0,-2.0,-9.0,-0.0,0.0,0.9,-0.4,-0.6,0.13,-0.66,0.14,0.73,0.0,0.0,0.0
1752855184723,199.0,-85.0,-1.0,-9.0,0.0,1.0,0.3,-0.1,0.3,0.12,-0.67,0.13,0.72,0.0,0.0,0.0
1752855184773,196.0,-87.0,-1.0,-10.0,-1.0,3.0,-0.2,-1.1,2.3,0.1,-0.68,0.11,0.72,0.0,0.0,0.0
1752855185005,179.0,-89.0,180.0,-10.0,-1.0,2.0,-0.2,-0.7,1.8,-0.0,-0.71,-0.01,0.7,0.0,0.0,0.0
1752855185040,175.0,-88.0,180.0,-10.0,-1.0,1.0,0.3,-0.8,0.8,-0.03,-0.72,-0.03,0.7,0.0,0.0,0.0
1752855185087,172.0,-88.0,180.0,-9.0,-1.0,0.0,0.6,-0.7,0.5,-0.05,-0.72,-0.05,0.7,0.0,0.0,0.0
1752855185230,159.0,-86.0,3.0,-9.0,-0.0,1.0,0.6,0.0,1.5,-0.07,-0.71,-0.07,0.7,0.0,0.0,0.0
1752855185277,154.0,-84.0,4.0,-9.0,0.0,3.0,0.7,1.2,2.0,-0.16,-0.65,-0.2,0.71,0.0,0.0,0.0
1752855185324,150.0,-82.0,47.0,-9.0,1.0,2.0,0.7,2.0,0.9,-0.19,-0.63,-0.24,0.71,0.0,0.0,0.0
1752855185355,145.0,-79.0,45.0,-9.0,1.0,2.0,0.0,2.3,0.9,-0.22,-0.6,-0.28,0.72,0.0,0.0,0.0
1752855185494,128.0,-70.0,45.0,-10.0,-1.0,3.0,-0.4,1.6,-0.1,-0.26,-0.56,-0.32,0.72,0.0,0.0,0.0
1752855185541,123.0,-67.0,47.0,-9.0,-2.0,2.0,-0.1,0.6,-0.5,-0.37,-0.43,-0.43,0.7,0.0,0.0,0.0
1752855185574,119.0,-66.0,49.0,-9.0,-4.0,3.0,-0.4,-0.4,0.7,-0.4,-0.39,-0.46,0.69,0.0,0.0,0.0
1752855185612,115.0,-63.0,52.0,-9.0,-3.0,3.0,-0.4,-0.7,2.1,-0.43,-0.35,-0.49,0.68,0.0,0.0,0.0
1752855185649,112.0,-61.0,54.0,-9.0,-5.0,6.0,-0.1,-1.2,3.0,-0.45,-0.31,-0.51,0.67,0.0,0.0,0.0
1752855185792,109.0,-49.0,55.0,-7.0,-4.0,5.0,0.1,0.9,1.5,-0.46,-0.27,-0.52,0.66,0.0,0.0,0.0
1752855186044,110.0,-37.0,53.0,-5.0,-7.0,5.0,-0.5,0.2,0.3,-0.49,-0.08,-0.51,0.7,0.0,0.0,0.0
1752855186079,111.0,-29.0,54.0,-4.0,-8.0,7.0,0.9,-1.3,2.3,-0.49,0.0,-0.49,0.72,0.0,0.0,0.0
1752855186114,111.0,-27.0,56.0,-4.0,-7.0,7.0,-0.1,-0.6,1.6,-0.49,0.03,-0.5,0.71,0.0,0.0,0.0
1752855186161,111.0,-25.0,58.0,-3.0,-8.0,6.0,1.3,-0.3,1.3,-0.49,0.05,-0.51,0.71,0.0,0.0,0.0
1752855186198,111.0,-23.0,58.0,-4.0,-7.0,5.0,0.1,0.5,0.6,-0.49,0.07,-0.5,0.71,0.0,0.0,0.0
1752855186244,110.0,-22.0,59.0,-3.0,-7.0,5.0,0.5,1.0,0.1,-0.49,0.08,-0.5,0.7,0.0,0.0,0.0
1752855186280,109.0,-21.0,61.0,-4.0,-7.0,5.0,-0.9,0.9,0.2,-0.49,0.11,-0.51,0.7,0.0,0.0,0.0
1752855186315,108.0,-20.0,63.0,-4.0,-9.0,5.0,-0.7,-0.2,1.0,-0.5,0.13,-0.52,0.68,0.0,0.0,0.0
1752855186356,107.0,-19.0,65.0,-4.0,-8.0,5.0,-0.7,0.5,1.1,-0.5,0.15,-0.53,0.67,0.0,0.0,0.0
1752855186397,106.0,-18.0,67.0,-3.0,-8.0,4.0,-0.7,0.4,0.5,-0.5,0.17,-0.54,0.66,0.0,0.0,0.0
1752855186539,106.0,-15.0,68.0,-2.0,-9.0,4.0,0.9,-0.1,0.7,-0.5,0.2,-0.53,0.66,0.0,0.0,0.0
1752855186582,106.0,-15.0,69.0,-2.0,-8.0,3.0,0.7,0.5,-0.2,-0.49,0.2,-0.53,0.66,0.0,0.0,0.0
1752855186632,107.0,-14.0,69.0,-2.0,-9.0,4.0,0.4,-0.2,0.6,-0.49,0.21,-0.53,0.66,0.0,0.0,0.0
