timestamp,heading,roll,pitch,acc_x,acc_y,acc_z,lin_acc_x,lin_acc_y,lin_acc_z,quat_w,quat_x,quat_y,quat_z,mag_x,mag_y,mag_z
1752859137164,351.0,-8.0,92.0,-1.0,-10.0,-0.0,0.0,-0.2,0.1,0.69,-0.72,0.05,0.05,0.0,0.0,0.0
1752859137164,351.0,-8.0,92.0,-1.0,-10.0,-0.0,0.0,-0.1,0.1,0.69,-0.72,0.05,0.05,0.0,0.0,0.0
1752859137164,351.0,-8.0,92.0,-1.0,-10.0,-0.0,0.0,-0.1,0.1,0.69,-0.72,0.05,0.05,0.0,0.0,0.0
1752859137164,351.0,-8.0,92.0,-1.0,-10.0,-0.0,0.0,-0.1,0.1,0.69,-0.72,0.05,0.05,0.0,0.0,0.0
1752859137165,351.0,-8.0,92.0,-1.0,-10.0,-0.0,0.1,-0.1,0.1,0.69,-0.72,0.05,0.05,0.0,0.0,0.0
1752859137200,351.0,-8.0,92.0,-1.0,-10.0,-0.0,0.0,-0.1,0.2,0.69,-0.72,0.05,0.05,0.0,0.0,0.0
1752859137241,351.0,-8.0,92.0,-1.0,-10.0,-0.0,-0.0,0.0,-0.0,0.69,-0.72,0.05,0.05,0.0,0.0,0.0
1752859137283,351.0,-8.0,92.0,-1.0,-10.0,-0.0,0.1,-0.1,0.0,0.69,-0.72,0.05,0.05,0.0,0.0,0.0
1752859137435,351.0,-8.0,92.0,-1.0,-10.0,-0.0,0.0,-0.2,0.2,0.69,-0.72,0.05,0.05,0.0,0.0,0.0
1752859137478,351.0,-8.0,92.0,-1.0,-10.0,-0.0,0.0,-0.2,0.1,0.69,-0.72,0.05,0.05,0.0,0.0,0.0
1752859137641,351.0,-8.0,92.0,-1.0,-10.0,-0.0,0.0,-0.1,0.1,0.69,-0.72,0.05,0.05,0.0,0.0,0.0
1752859137895,351.0,-8.0,92.0,-1.0,-10.0,-0.0,-2.4,1.4,4.8,0.69,-0.72,0.05,0.05,0.0,0.0,0.0
1752859137949,352.0,-8.0,92.0,-7.0,-5.0,14.0,-5.4,4.3,14.7,0.69,-0.72,0.05,0.05,0.0,0.0,0.0
1752859138069,352.0,-7.0,96.0,-0.0,-12.0,-3.0,-0.7,-3.5,-1.8,0.69,-0.72,0.04,0.05,0.0,0.0,0.0
1752859138112,353.0,-6.0,102.0,1.0,-12.0,0.0,1.8,-1.9,2.0,0.63,-0.78,0.03,0.04,0.0,0.0,0.0
1752859138150,353.0,-5.0,105.0,-1.0,-10.0,-2.0,0.0,0.0,0.0,0.61,-0.79,0.03,0.04,0.0,0.0,0.0
1752859138192,352.0,-5.0,108.0,-2.0,-11.0,-2.0,-1.0,-1.9,0.8,0.59,-0.81,0.02,0.04,0.0,0.0,0.0
1752859138238,351.0,-4.0,113.0,-0.0,-8.0,-4.0,0.5,-0.3,-0.4,0.56,-0.83,0.01,0.04,0.0,0.0,0.0
1752859138490,345.0,-3.0,130.0,-0.0,-8.0,-7.0,0.5,-1.8,0.6,0.42,-0.9,-0.04,0.05,0.0,0.0,0.0
1752859138540,163.0,-4.0,144.0,-1.0,-8.0,-9.0,-0.1,-2.7,-0.6,0.31,-0.94,-0.13,0.08,0.0,0.0,0.0
1752859138779,151.0,-16.0,162.0,-3.0,-5.0,-9.0,-0.1,-1.8,0.1,0.28,-0.94,-0.16,0.09,0.0,0.0,0.0
1752859138830,151.0,-18.0,166.0,-4.0,0.0,-7.0,-1.1,2.5,2.3,0.08,-0.95,-0.25,0.18,0.0,0.0,0.0
1752859138864,151.0,-20.0,167.0,-6.0,-1.0,-6.0,-1.7,1.1,2.3,0.06,-0.95,-0.24,0.2,0.0,0.0,0.0
1752859138910,153.0,-24.0,166.0,-6.0,-1.0,-7.0,-2.3,0.8,1.7,0.06,-0.94,-0.23,0.23,0.0,0.0,0.0
1752859138949,155.0,-30.0,166.0,-7.0,-2.0,-7.0,-2.2,-0.3,0.8,0.05,-0.94,-0.21,0.27,0.0,0.0,0.0
1752859139204,157.0,-35.0,165.0,-6.0,-4.0,-8.0,6.3,-2.4,-3.4,0.05,-0.93,-0.19,0.31,0.0,0.0,0.0
1752859139441,179.0,-68.0,-161.0,-9.0,0.0,-3.0,0.7,0.3,0.4,-0.01,-0.82,0.09,0.57,0.0,0.0,0.0
1752859139595,186.0,-65.0,-164.0,-9.0,0.0,-4.0,-0.0,-0.7,-0.3,0.02,-0.83,0.15,0.54,0.0,0.0,0.0
1752859139748,200.0,-63.0,-175.0,-9.0,0.0,-4.0,0.2,-0.5,0.6,0.09,-0.83,0.18,0.52,0.0,0.0,0.0
1752859139798,202.0,-64.0,-178.0,-9.0,-1.0,-4.0,0.1,-0.8,0.6,0.1,-0.83,0.18,0.52,0.0,0.0,0.0
1752859139832,204.0,-64.0,-179.0,-9.0,-1.0,-4.0,0.0,-0.8,0.3,0.11,-0.83,0.18,0.52,0.0,0.0,0.0
1752859139977,207.0,-67.0,178.0,-9.0,-1.0,-4.0,0.1,-0.4,0.0,0.12,-0.82,0.18,0.52,0.0,0.0,0.0
1752859140221,208.0,-68.0,-177.0,-9.0,0.0,-3.0,-0.3,-0.9,0.0,0.13,-0.81,0.19,0.54,0.0,0.0,0.0
1752859140373,187.0,-57.0,-142.0,-8.0,3.0,-4.0,0.3,-1.0,0.3,0.04,-0.77,0.35,0.54,0.0,0.0,0.0
1752859140420,183.0,-54.0,-138.0,-7.0,2.0,-4.0,0.4,-2.2,0.9,0.01,-0.75,0.39,0.53,0.0,0.0,0.0
1752859140456,184.0,-54.0,-138.0,-9.0,1.0,-2.0,-0.4,-2.9,1.7,0.02,-0.75,0.39,0.53,0.0,0.0,0.0
1752859140499,194.0,-61.0,-142.0,-10.0,-0.0,-3.0,-1.2,-2.5,0.4,0.05,-0.75,0.37,0.55,0.0,0.0,0.0
1752859140544,207.0,-71.0,-159.0,-12.0,-0.0,-4.0,-2.2,-1.1,-0.8,0.12,-0.76,0.31,0.57,0.0,0.0,0.0
1752859140579,221.0,-76.0,156.0,-13.0,-1.0,-3.0,-3.0,0.3,-1.4,0.2,-0.76,0.22,0.58,0.0,0.0,0.0
1752859140631,233.0,-69.0,117.0,-8.0,-0.0,-4.0,1.5,3.5,-2.0,0.27,-0.76,0.13,0.58,0.0,0.0,0.0
1752859140766,235.0,-67.0,119.0,-12.0,-2.0,-1.0,-3.3,0.3,0.5,0.29,-0.76,0.1,0.57,0.0,0.0,0.0
1752859140807,217.0,-77.0,164.0,-13.0,-2.0,-1.0,-3.6,-1.7,0.8,0.22,-0.76,0.18,0.59,0.0,0.0,0.0
1752859140850,199.0,-72.0,-141.0,-10.0,-4.0,-2.0,-0.5,-6.0,0.8,0.12,-0.74,0.26,0.6,0.0,0.0,0.0
1752859140900,184.0,-63.0,-124.0,-6.0,-2.0,-1.0,2.8,-5.9,1.9,0.04,-0.72,0.32,0.61,0.0,0.0,0.0
1752859140933,181.0,-61.0,-121.0,-9.0,1.0,-2.0,0.0,0.0,0.0,0.0,-0.71,0.35,0.61,0.0,0.0,0.0
1752859141183,189.0,-68.0,-127.0,-13.0,2.0,-4.0,-2.2,1.5,0.6,0.05,-0.72,0.3,0.62,0.0,0.0,0.0
1752859141330,182.0,-52.0,-126.0,-7.0,1.0,-2.0,0.3,-4.0,1.5,0.01,-0.69,0.45,0.57,0.0,0.0,0.0
1752859141381,185.0,-56.0,-125.0,-10.0,3.0,-4.0,-2.0,-1.0,-1.0,0.02,-0.69,0.43,0.58,0.0,0.0,0.0
1752859141417,198.0,-66.0,-132.0,-12.0,2.0,-4.0,-2.4,-0.3,-1.3,0.09,-0.71,0.36,0.6,0.0,0.0,0.0
1752859142026,190.0,-61.0,-115.0,-9.0,3.0,-2.0,-0.2,-1.1,-0.2,0.04,-0.66,0.41,0.63,0.0,0.0,0.0
1752859142061,198.0,-68.0,-121.0,-10.0,2.0,-2.0,-0.7,-1.1,0.1,0.09,-0.68,0.37,0.63,0.0,0.0,0.0
1752859142180,234.0,-76.0,120.0,-14.0,-6.0,0.0,0.0,0.0,0.0,0.15,-0.7,0.32,0.62,0.0,0.0,0.0
1752859142324,253.0,-58.0,106.0,-8.0,-4.0,-1.0,0.3,0.7,0.3,0.33,-0.74,0.14,0.57,0.0,0.0,0.0
1752859142368,253.0,-58.0,108.0,-8.0,-4.0,-1.0,-0.1,0.7,0.3,0.38,-0.76,0.07,0.52,0.0,0.0,0.0
1752859142406,249.0,-60.0,111.0,-9.0,-4.0,-2.0,0.1,1.1,0.2,0.36,-0.76,0.09,0.53,0.0,0.0,0.0
1752859142448,241.0,-66.0,120.0,-9.0,-2.0,-2.0,-0.3,1.4,0.1,0.33,-0.77,0.12,0.54,0.0,0.0,0.0
1752859142505,233.0,-72.0,133.0,-10.0,-2.0,-2.0,-1.0,0.4,0.3,0.29,-0.76,0.16,0.56,0.0,0.0,0.0
1752859142544,223.0,-76.0,162.0,-11.0,-0.0,-2.0,-1.3,0.1,0.5,0.24,-0.75,0.22,0.57,0.0,0.0,0.0
1752859142592,213.0,-75.0,-157.0,-11.0,2.0,-2.0,-1.9,-0.3,0.3,0.17,-0.73,0.3,0.59,0.0,0.0,0.0
1752859142631,199.0,-66.0,-130.0,-10.0,3.0,-3.0,-0.7,-0.9,-0.1,0.12,-0.7,0.37,0.6,0.0,0.0,0.0
1752859142668,190.0,-57.0,-123.0,-8.0,3.0,-3.0,0.0,-2.2,0.0,0.05,-0.67,0.44,0.59,0.0,0.0,0.0
1752859142719,179.0,-49.0,-119.0,-6.0,3.0,-3.0,1.1,-3.2,0.6,0.01,-0.65,0.48,0.59,0.0,0.0,0.0
1752859142955,202.0,-72.0,-125.0,-10.0,1.0,-2.0,-0.6,-1.3,0.2,-0.02,-0.64,0.5,0.58,0.0,0.0,0.0
1752859142996,212.0,-80.0,-145.0,-11.0,0.0,-1.0,-0.9,-0.0,0.0,0.16,-0.7,0.3,0.63,0.0,0.0,0.0
1752859143055,224.0,-82.0,139.0,-11.0,-1.0,-1.0,-1.2,0.1,0.0,0.24,-0.71,0.23,0.62,0.0,0.0,0.0
1752859143189,248.0,-58.0,100.0,-9.0,-5.0,-1.0,-1.2,0.2,0.1,0.29,-0.72,0.17,0.61,0.0,0.0,0.0
1752859143335,254.0,-51.0,101.0,-10.0,-11.0,1.0,-3.9,-3.0,3.1,0.4,-0.75,-0.02,0.53,0.0,0.0,0.0
1752859143487,272.0,-32.0,103.0,-5.0,-8.0,-2.0,-0.0,0.8,0.5,0.46,-0.76,-0.14,0.45,0.0,0.0,0.0
1752859143523,277.0,-22.0,105.0,-3.0,-7.0,-2.0,0.1,1.1,-0.1,0.46,-0.74,-0.26,0.41,0.0,0.0,0.0
1752859143570,276.0,-21.0,106.0,-4.0,-8.0,-2.0,-0.1,0.9,0.2,0.45,-0.74,-0.28,0.41,0.0,0.0,0.0
1752859143606,273.0,-22.0,107.0,-4.0,-9.0,-2.0,-0.2,-0.2,0.6,0.44,-0.74,-0.29,0.42,0.0,0.0,0.0
1752859143647,269.0,-23.0,107.0,-4.0,-8.0,-3.0,-0.3,1.1,0.3,0.43,-0.74,-0.29,0.43,0.0,0.0,0.0
1752859143926,224.0,-53.0,114.0,-4.0,-9.0,-6.0,3.6,-3.9,-3.1,0.24,-0.77,-0.18,0.56,0.0,0.0,0.0
1752859144049,193.0,-74.0,116.0,-9.0,-2.0,-1.0,0.2,0.0,0.3,0.19,-0.77,-0.17,0.59,0.0,0.0,0.0
1752859144083,186.0,-80.0,110.0,-10.0,-2.0,-0.0,0.0,0.0,0.0,0.04,-0.72,-0.08,0.68,0.0,0.0,0.0
1752859144232,169.0,-77.0,-49.0,-9.0,1.0,1.0,-0.4,-0.1,-0.1,0.01,-0.7,-0.05,0.71,0.0,0.0,0.0
1752859144288,165.0,-70.0,-59.0,-9.0,1.0,1.0,2.0,-0.6,-1.5,-0.09,-0.64,0.1,0.76,0.0,0.0,0.0
1752859144530,155.0,-53.0,-99.0,-7.0,6.0,-2.0,0.1,-0.6,0.4,-0.15,-0.67,0.31,0.66,0.0,0.0,0.0
1752859144562,152.0,-50.0,-106.0,-7.0,5.0,-2.0,0.1,-1.3,0.1,-0.15,-0.69,0.32,0.63,0.0,0.0,0.0
1752859144715,147.0,-48.0,-122.0,-8.0,3.0,-3.0,-0.6,-2.7,0.2,-0.16,-0.71,0.32,0.6,0.0,0.0,0.0
1752859144748,145.0,-49.0,-124.0,-8.0,6.0,-2.0,-0.8,0.5,1.9,-0.17,-0.78,0.27,0.54,0.0,0.0,0.0
1752859144898,140.0,-57.0,-125.0,-9.0,4.0,-0.0,-0.3,-0.2,2.5,-0.18,-0.79,0.23,0.53,0.0,0.0,0.0
1752859144932,141.0,-61.0,-125.0,-9.0,4.0,-1.0,1.3,-0.3,-0.8,-0.2,-0.8,0.08,0.56,0.0,0.0,0.0
1752859144982,142.0,-65.0,-125.0,-5.0,-1.0,-3.0,2.8,-6.5,0.4,-0.2,-0.79,0.03,0.58,0.0,0.0,0.0
1752859145021,143.0,-68.0,-128.0,-7.0,-0.0,-3.0,-0.7,0.5,1.0,-0.19,-0.79,-0.01,0.59,0.0,0.0,0.0
1752859145058,148.0,-72.0,-134.0,-9.0,5.0,-1.0,0.3,3.4,0.6,-0.18,-0.78,-0.04,0.6,0.0,0.0,0.0
1752859145094,153.0,-76.0,-141.0,-9.0,3.0,-2.0,0.3,1.1,-0.2,-0.15,-0.77,-0.06,0.61,0.0,0.0,0.0
1752859145147,155.0,-77.0,-144.0,-9.0,1.0,-2.0,0.3,-0.3,-0.4,-0.14,-0.77,-0.06,0.62,0.0,0.0,0.0
1752859145290,156.0,-81.0,-159.0,-10.0,1.0,-2.0,0.0,0.4,-0.6,-0.13,-0.76,-0.07,0.63,0.0,0.0,0.0
1752859145433,137.0,-77.0,-159.0,-9.0,-1.0,-4.0,1.0,-2.8,-1.6,-0.23,-0.74,-0.23,0.59,0.0,0.0,0.0
1752859145471,129.0,-75.0,-157.0,-9.0,-1.0,-1.0,0.7,-1.8,1.5,-0.27,-0.74,-0.27,0.56,0.0,0.0,0.0
1752859145505,121.0,-72.0,-157.0,-9.0,-0.0,-1.0,0.5,-1.5,2.2,-0.29,-0.74,-0.29,0.53,0.0,0.0,0.0
1752859145555,234.0,-70.0,-157.0,-10.0,1.0,-2.0,-0.8,-0.6,1.0,-0.31,-0.74,-0.32,0.5,0.0,0.0,0.0
1752859145606,231.0,-69.0,-158.0,-7.0,-0.0,-3.0,0.9,-0.7,1.1,0.25,-0.68,0.45,0.52,0.0,0.0,0.0
1752859145640,229.0,-67.0,-161.0,-9.0,-0.0,-3.0,0.1,-1.4,0.6,0.23,-0.7,0.44,0.51,0.0,0.0,0.0
1752859145690,228.0,-65.0,-165.0,-9.0,2.0,-1.0,-0.8,2.9,4.7,0.22,-0.72,0.43,0.5,0.0,0.0,0.0
1752859145725,226.0,-63.0,-168.0,-9.0,1.0,-2.0,-0.6,-2.0,0.3,0.21,-0.74,0.41,0.49,0.0,0.0,0.0
1752859145771,226.0,-62.0,-171.0,-9.0,-0.0,-10.0,-0.8,-1.0,-5.8,0.2,-0.75,0.4,0.48,0.0,0.0,0.0
1752859145905,229.0,-54.0,-175.0,-7.0,-1.0,-5.0,0.4,-1.1,0.9,0.2,-0.76,0.41,0.46,0.0,0.0,0.0
1752859146632,206.0,-44.0,-168.0,-5.0,3.0,-4.0,-0.9,0.7,3.8,0.09,-0.83,0.4,0.38,0.0,0.0,0.0
1752859146767,155.0,-53.0,-139.0,-12.0,4.0,-3.0,1.3,2.5,-0.4,0.05,-0.84,0.37,0.4,0.0,0.0,0.0
1752859146907,141.0,-57.0,-130.0,-8.0,14.0,5.0,1.6,-3.0,9.9,-0.17,-0.81,0.15,0.54,0.0,0.0,0.0
1752859146954,150.0,-55.0,-139.0,-20.0,12.0,5.0,-11.6,8.0,9.0,-0.15,-0.83,0.13,0.52,0.0,0.0,0.0
1752859147196,179.0,-43.0,-161.0,-7.0,-2.0,-9.0,2.6,-1.0,-0.8,-0.08,-0.85,0.2,0.49,0.0,0.0,0.0
1752859147246,215.0,-34.0,-151.0,-4.0,2.0,-7.0,1.0,-1.3,0.2,-0.11,-0.89,0.28,0.35,0.0,0.0,0.0
1752859147296,218.0,-28.0,-154.0,-3.0,1.0,-8.0,1.5,-2.5,-0.6,-0.11,-0.89,0.3,0.31,0.0,0.0,0.0
1752859147330,217.0,-24.0,-155.0,-3.0,1.0,-8.0,0.7,-3.4,1.0,-0.13,-0.9,0.31,0.27,0.0,0.0,0.0
1752859147377,215.0,-21.0,-153.0,-3.0,1.0,-6.0,-0.2,-3.7,1.5,-0.16,-0.91,0.29,0.25,0.0,0.0,0.0
1752859147413,208.0,-22.0,-150.0,-5.0,-1.0,-6.0,-1.6,-5.5,1.6,-0.18,-0.92,0.24,0.24,0.0,0.0,0.0
1752859147461,196.0,-27.0,-146.0,-7.0,4.0,-6.0,-2.4,-2.3,1.9,-0.22,-0.92,0.16,0.27,0.0,0.0,0.0
1752859147513,105.0,-37.0,-147.0,-10.0,3.0,-4.0,-3.5,-1.5,2.6,-0.24,-0.92,0.02,0.31,0.0,0.0,0.0
1752859147647,136.0,-54.0,171.0,-8.0,3.0,-4.0,-0.3,3.5,1.2,-0.24,-0.9,-0.11,0.35,0.0,0.0,0.0
1752859147698,140.0,-54.0,163.0,-9.0,-1.0,-5.0,-0.9,-0.0,0.0,-0.16,-0.75,-0.47,0.44,0.0,0.0,0.0
1752859147845,143.0,-55.0,156.0,-9.0,-4.0,-4.0,0.1,-1.8,0.2,-0.16,-0.72,-0.49,0.47,0.0,0.0,0.0
1752859147896,131.0,-60.0,160.0,-9.0,-3.0,-4.0,-0.0,-1.7,0.4,-0.21,-0.7,-0.5,0.47,0.0,0.0,0.0
1752859148035,128.0,-60.0,165.0,-8.0,-2.0,-4.0,0.0,0.0,0.0,-0.22,-0.7,-0.5,0.46,0.0,0.0,0.0
1752859148079,127.0,-58.0,174.0,-8.0,0.0,-4.0,0.4,1.1,1.3,-0.22,-0.75,-0.44,0.43,0.0,0.0,0.0
1752859148118,133.0,-58.0,176.0,-8.0,-0.0,-4.0,0.0,0.0,0.8,-0.2,-0.78,-0.4,0.44,0.0,0.0,0.0
1752859148169,137.0,-59.0,179.0,-10.0,-1.0,-5.0,-1.4,-0.8,-0.2,-0.18,-0.8,-0.34,0.46,0.0,0.0,0.0
1752859148410,138.0,-53.0,-155.0,-7.0,2.0,-5.0,0.6,-2.0,0.4,-0.17,-0.82,-0.27,0.47,0.0,0.0,0.0
1752859148451,122.0,-39.0,-142.0,-5.0,3.0,-6.0,1.0,-1.4,0.5,-0.21,-0.89,0.13,0.39,0.0,0.0,0.0
1752859148605,121.0,-35.0,-144.0,-5.0,2.0,-7.0,0.6,-2.7,-0.4,-0.22,-0.89,0.15,0.38,0.0,0.0,0.0
1752859148655,122.0,-36.0,-145.0,-6.0,3.0,-8.0,0.2,-1.8,-1.0,-0.2,-0.9,0.14,0.36,0.0,0.0,0.0
1752859148790,121.0,-38.0,-148.0,-6.0,-1.0,-7.0,-2.1,-4.2,0.5,-0.2,-0.91,0.09,0.36,0.0,0.0,0.0
1752859148836,122.0,-47.0,-170.0,-10.0,-4.0,-6.0,-2.2,-3.4,2.2,-0.19,-0.86,-0.31,0.35,0.0,0.0,0.0
1752859148874,120.0,-43.0,168.0,-9.0,2.0,-5.0,-2.5,4.1,2.2,-0.13,-0.82,-0.43,0.36,0.0,0.0,0.0
1752859149015,181.0,-41.0,132.0,-8.0,-5.0,-9.0,-1.3,0.9,-3.6,-0.06,-0.76,-0.53,0.38,0.0,0.0,0.0
1752859149058,172.0,-44.0,132.0,-9.0,-6.0,-5.0,-2.2,-0.9,-0.3,-0.03,-0.65,-0.57,0.51,0.0,0.0,0.0
1752859149108,165.0,-47.0,134.0,-8.0,-7.0,-4.0,0.2,-2.1,0.8,-0.06,-0.64,-0.57,0.51,0.0,0.0,0.0
1752859149243,159.0,-48.0,138.0,-7.0,-3.0,-5.0,0.2,-0.5,1.2,-0.09,-0.65,-0.57,0.49,0.0,0.0,0.0
1752859149294,144.0,-47.0,158.0,-7.0,-2.0,-6.0,0.6,1.0,0.6,-0.14,-0.71,-0.55,0.41,0.0,0.0,0.0
1752859149342,144.0,-48.0,161.0,-7.0,-1.0,-6.0,0.0,0.8,0.7,-0.13,-0.75,-0.51,0.41,0.0,0.0,0.0
1752859149379,142.0,-50.0,166.0,-8.0,-1.0,-6.0,-0.2,0.5,0.4,-0.14,-0.77,-0.46,0.41,0.0,0.0,0.0
1752859149515,127.0,-53.0,-160.0,-9.0,2.0,-5.0,-1.3,-0.4,0.9,-0.16,-0.8,-0.4,0.42,0.0,0.0,0.0
1752859149563,125.0,-50.0,-152.0,-9.0,1.0,-5.0,-0.7,-3.0,0.3,-0.21,-0.88,-0.12,0.41,0.0,0.0,0.0
1752859149807,119.0,-38.0,-142.0,-5.0,3.0,-7.0,1.5,-1.9,-0.5,-0.22,-0.89,0.12,0.37,0.0,0.0,0.0
1752859150166,97.0,-36.0,154.0,-7.0,-2.0,-9.0,-0.9,2.1,-2.3,-0.08,-0.7,-0.61,0.36,0.0,0.0,0.0
1752859150208,166.0,-37.0,147.0,-7.0,-4.0,-9.0,-1.0,0.4,-2.4,-0.05,-0.68,-0.62,0.4,0.0,0.0,0.0
1752859150358,150.0,-45.0,147.0,-7.0,-5.0,-5.0,-0.4,-1.1,0.9,-0.05,-0.66,-0.62,0.42,0.0,0.0,0.0
1752859150406,145.0,-48.0,150.0,-8.0,-3.0,-5.0,-0.4,-0.3,0.6,-0.14,-0.66,-0.6,0.44,0.0,0.0,0.0
1752859150542,143.0,-57.0,160.0,-8.0,-3.0,-5.0,-0.0,0.6,0.6,-0.15,-0.67,-0.58,0.44,0.0,0.0,0.0
1752859150592,140.0,-58.0,168.0,-9.0,-2.0,-6.0,-0.7,-0.6,-0.0,-0.17,-0.77,-0.4,0.46,0.0,0.0,0.0
1752859150623,140.0,-58.0,175.0,-9.0,-1.0,-5.0,-0.6,-1.4,-0.1,-0.17,-0.8,-0.34,0.46,0.0,0.0,0.0
1752859150673,136.0,-58.0,-174.0,-9.0,0.0,-6.0,-1.2,-0.3,-0.4,-0.18,-0.83,-0.28,0.45,0.0,0.0,0.0
1752859150709,133.0,-56.0,-166.0,-9.0,0.0,-6.0,-0.9,-0.5,-0.4,-0.19,-0.85,-0.22,0.44,0.0,0.0,0.0
1752859150973,93.0,-28.0,-141.0,-4.0,4.0,-6.0,0.3,-1.4,0.5,-0.27,-0.91,0.09,0.3,0.0,0.0,0.0
1752859151010,87.0,-25.0,-140.0,-4.0,4.0,-5.0,0.0,-1.3,1.5,-0.28,-0.91,0.12,0.27,0.0,0.0,0.0
1752859151158,199.0,-19.0,-146.0,-3.0,4.0,-7.0,0.6,-0.7,0.1,-0.28,-0.92,0.13,0.25,0.0,0.0,0.0
1752859151208,200.0,-19.0,-147.0,-2.0,4.0,-9.0,1.1,-0.5,-0.5,-0.24,-0.93,0.16,0.22,0.0,0.0,0.0
1752859151899,104.0,-43.0,-153.0,-7.0,-0.0,-7.0,-0.1,-0.7,0.2,-0.26,-0.89,-0.19,0.33,0.0,0.0,0.0
1752859151955,132.0,-45.0,177.0,-7.0,-2.0,-7.0,-0.4,-0.7,0.5,-0.16,-0.83,-0.4,0.35,0.0,0.0,0.0
1752859151987,139.0,-44.0,170.0,-7.0,-0.0,-6.0,0.0,1.4,0.9,-0.13,-0.8,-0.47,0.36,0.0,0.0,0.0
1752859152026,146.0,-43.0,164.0,-6.0,-1.0,-5.0,0.5,0.8,1.1,-0.11,-0.77,-0.51,0.37,0.0,0.0,0.0
1752859152065,160.0,-43.0,155.0,-7.0,-4.0,-7.0,0.0,0.0,0.0,-0.08,-0.75,-0.52,0.4,0.0,0.0,0.0
1752859152107,166.0,-44.0,149.0,-8.0,-5.0,-7.0,-0.8,-0.9,-0.7,-0.05,-0.74,-0.51,0.43,0.0,0.0,0.0
1752859152263,166.0,-51.0,142.0,-8.0,-5.0,-5.0,-0.4,-0.8,-0.2,-0.05,-0.73,-0.51,0.45,0.0,0.0,0.0
1752859152299,163.0,-53.0,141.0,-8.0,-4.0,-5.0,0.2,-0.3,-0.2,-0.07,-0.71,-0.47,0.51,0.0,0.0,0.0
1752859152349,160.0,-56.0,142.0,-8.0,-4.0,-4.0,0.1,-0.2,-0.1,-0.09,-0.72,-0.46,0.52,0.0,0.0,0.0
1752859152396,157.0,-58.0,145.0,-9.0,-2.0,-4.0,0.1,-1.1,-0.4,-0.11,-0.72,-0.44,0.52,0.0,0.0,0.0
1752859152433,153.0,-60.0,149.0,-8.0,-3.0,-4.0,0.4,-0.2,-0.4,-0.12,-0.73,-0.42,0.52,0.0,0.0,0.0
1752859152466,148.0,-62.0,156.0,-9.0,-2.0,-5.0,0.1,-0.4,-0.5,-0.14,-0.74,-0.4,0.52,0.0,0.0,0.0
1752859152516,145.0,-63.0,162.0,-9.0,-1.0,-4.0,0.1,0.1,-0.3,-0.16,-0.75,-0.38,0.51,0.0,0.0,0.0
1752859152566,140.0,-64.0,171.0,-9.0,-1.0,-4.0,0.1,-0.3,-0.1,-0.18,-0.77,-0.35,0.5,0.0,0.0,0.0
1752859152614,136.0,-64.0,-179.0,-9.0,-0.0,-5.0,0.2,-0.3,-0.1,-0.19,-0.79,-0.32,0.49,0.0,0.0,0.0
1752859152758,132.0,-57.0,-163.0,-8.0,-0.0,-5.0,0.1,-2.0,-0.3,-0.2,-0.8,-0.29,0.48,0.0,0.0,0.0
1752859152800,131.0,-54.0,-162.0,-8.0,1.0,-6.0,0.0,-1.3,0.0,-0.19,-0.86,-0.18,0.43,0.0,0.0,0.0
1752859152951,160.0,-42.0,-163.0,-6.0,1.0,-8.0,0.7,-0.4,-1.1,-0.19,-0.88,-0.17,0.4,0.0,0.0,0.0
1752859153001,160.0,-38.0,-165.0,-5.0,1.0,-8.0,0.6,-0.8,-0.6,-0.17,-0.92,-0.16,0.3,0.0,0.0,0.0
1752859168672,360.0,-77.0,-178.0,-10.0,0.0,-2.0,-0.0,0.0,0.3,0.62,0.01,0.78,0.0,0.0,0.0,0.0
1752859168716,360.0,-77.0,-178.0,-10.0,0.0,-2.0,-0.0,0.0,0.0,0.62,0.01,0.79,0.0,0.0,0.0,0.0
1752859168864,0.0,-77.0,-178.0,-9.0,0.0,-2.0,0.1,-0.0,-0.3,0.62,0.01,0.78,-0.0,0.0,0.0,0.0
1752859168912,1.0,-77.0,-177.0,-9.0,0.0,-2.0,0.1,0.1,-0.1,0.62,0.01,0.78,-0.0,0.0,0.0,0.0
1752859169163,359.0,-78.0,-173.0,-10.0,0.0,-2.0,0.1,0.0,0.1,0.62,0.01,0.78,-0.0,0.0,0.0,0.0
1752859169213,359.0,-78.0,-172.0,-9.0,0.0,-2.0,0.0,-0.0,0.2,0.63,0.01,0.78,0.01,0.0,0.0,0.0
1752859169265,359.0,-78.0,-172.0,-10.0,0.0,-2.0,0.0,0.0,0.1,0.63,0.02,0.78,0.01,0.0,0.0,0.0
1752859169413,359.0,-78.0,-170.0,-9.0,0.0,-2.0,0.1,0.0,-0.0,0.63,0.02,0.78,0.01,0.0,0.0,0.0
1752859169564,359.0,-77.0,-170.0,-10.0,0.0,-2.0,0.1,0.0,0.0,0.63,0.02,0.78,0.01,0.0,0.0,0.0
1752859169606,359.0,-77.0,-170.0,-10.0,0.0,-2.0,0.0,0.0,0.0,0.62,0.02,0.78,0.01,0.0,0.0,0.0
1752859169754,359.0,-77.0,-170.0,-9.0,0.0,-2.0,0.0,-0.0,0.1,0.62,0.02,0.78,0.01,0.0,0.0,0.0
1752859169904,359.0,-77.0,-170.0,-9.0,0.0,-2.0,0.1,-0.0,0.0,0.63,0.02,0.78,0.01,0.0,0.0,0.0
1752859169947,359.0,-78.0,-170.0,-9.0,0.0,-2.0,0.1,0.0,0.0,0.63,0.02,0.78,0.01,0.0,0.0,0.0
1752859170000,359.0,-78.0,-170.0,-10.0,0.0,-2.0,0.0,0.0,-0.0,0.63,0.02,0.78,0.01,0.0,0.0,0.0
1752859170036,359.0,-78.0,-170.0,-10.0,0.0,-2.0,0.0,0.0,0.0,0.63,0.02,0.78,0.01,0.0,0.0,0.0
1752859170067,359.0,-78.0,-169.0,-9.0,0.0,-2.0,0.1,0.0,0.1,0.63,0.02,0.78,0.01,0.0,0.0,0.0
1752859170114,359.0,-78.0,-169.0,-10.0,0.0,-2.0,0.0,-0.0,0.1,0.63,0.02,0.78,0.01,0.0,0.0,0.0
1752859170163,359.0,-78.0,-169.0,-10.0,0.0,-2.0,0.1,0.0,0.0,0.63,0.02,0.78,0.01,0.0,0.0,0.0
1752859170208,358.0,-78.0,-168.0,-10.0,0.0,-2.0,0.0,0.0,0.1,0.63,0.02,0.78,0.01,0.0,0.0,0.0
1752859170254,358.0,-78.0,-168.0,-10.0,0.0,-2.0,0.0,-0.0,0.1,0.63,0.02,0.77,0.01,0.0,0.0,0.0
1752859170404,358.0,-78.0,-168.0,-10.0,0.0,-2.0,0.0,0.0,0.0,0.63,0.02,0.77,0.01,0.0,0.0,0.0
1752859170447,358.0,-78.0,-168.0,-10.0,0.0,-2.0,0.0,-0.1,0.0,0.63,0.02,0.77,0.01,0.0,0.0,0.0
1752859170689,358.0,-78.0,-168.0,-9.0,0.0,-2.0,0.1,0.1,0.0,0.63,0.02,0.77,0.01,0.0,0.0,0.0
1752859170728,358.0,-78.0,-168.0,-10.0,0.0,-2.0,0.0,-0.1,0.0,0.63,0.02,0.78,0.01,0.0,0.0,0.0
1752859170775,358.0,-78.0,-168.0,-10.0,0.0,-2.0,0.0,0.0,-0.0,0.63,0.02,0.78,0.01,0.0,0.0,0.0
1752859170818,358.0,-77.0,-168.0,-9.0,0.0,-2.0,0.1,-0.0,0.0,0.63,0.02,0.78,0.01,0.0,0.0,0.0
1752859170967,358.0,-77.0,-169.0,-9.0,0.0,-2.0,0.1,0.0,0.1,0.63,0.02,0.78,0.01,0.0,0.0,0.0
1752859171109,358.0,-77.0,-169.0,-9.0,0.0,-2.0,0.1,0.0,0.1,0.63,0.02,0.78,0.01,0.0,0.0,0.0
1752859171256,358.0,-77.0,-168.0,-9.0,0.0,-2.0,0.0,0.0,0.0,0.62,0.03,0.78,0.01,0.0,0.0,0.0
1752859171300,358.0,-77.0,-168.0,-9.0,1.0,-2.0,-0.0,0.2,0.2,0.63,0.03,0.78,0.01,0.0,0.0,0.0
1752859171339,358.0,-77.0,-167.0,-10.0,1.0,-2.0,0.0,0.1,0.2,0.63,0.03,0.78,0.01,0.0,0.0,0.0
1752859171486,358.0,-77.0,-167.0,-10.0,1.0,-2.0,-0.5,0.5,1.2,0.63,0.03,0.78,0.01,0.0,0.0,0.0
1752859171528,359.0,-77.0,-165.0,-11.0,0.0,-0.0,-1.1,-0.3,2.1,0.63,0.04,0.78,0.01,0.0,0.0,0.0
1752859171569,360.0,-77.0,-164.0,-11.0,0.0,-0.0,-1.8,-0.3,1.9,0.62,0.05,0.78,0.0,0.0,0.0,0.0
1752859171816,7.0,-78.0,-155.0,-11.0,-0.0,-2.0,-0.1,-3.0,0.5,0.63,0.06,0.78,-0.01,0.0,0.0,0.0
1752859171865,10.0,-77.0,-148.0,-9.0,-2.0,-2.0,1.0,-2.2,0.1,0.63,0.15,0.76,-0.05,0.0,0.0,0.0
1752859171910,12.0,-78.0,-151.0,-9.0,-2.0,-3.0,0.9,-3.0,-0.8,0.63,0.16,0.75,-0.07,0.0,0.0,0.0
1752859171959,16.0,-78.0,-159.0,-9.0,-1.0,-3.0,0.6,-0.2,-0.6,0.63,0.16,0.75,-0.09,0.0,0.0,0.0
1752859171999,21.0,-79.0,-172.0,-7.0,-1.0,-3.0,0.7,-1.8,-0.3,0.62,0.16,0.75,-0.12,0.0,0.0,0.0
1752859172038,25.0,-77.0,177.0,-8.0,-0.0,-3.0,1.8,0.0,-1.0,0.61,0.16,0.77,-0.13,0.0,0.0,0.0
1752859172178,37.0,-68.0,154.0,-8.0,-1.0,-5.0,0.6,0.6,-1.0,0.59,0.15,0.78,-0.15,0.0,0.0,0.0
1752859172220,42.0,-64.0,150.0,-8.0,-1.0,-5.0,0.9,0.9,-1.5,0.53,0.11,0.82,-0.2,0.0,0.0,0.0
1752859172467,83.0,-39.0,140.0,-5.0,-4.0,-7.0,0.9,0.9,-1.0,0.5,0.08,0.84,-0.21,0.0,0.0,0.0
1752859172511,91.0,-37.0,137.0,-6.0,-5.0,-6.0,0.0,0.4,-0.7,0.32,0.06,0.89,-0.32,0.0,0.0,0.0
1752859172558,98.0,-36.0,135.0,-5.0,-5.0,-7.0,0.3,0.7,-1.0,0.31,0.07,0.89,-0.34,0.0,0.0,0.0
1752859172600,103.0,-34.0,134.0,-5.0,-5.0,-6.0,0.1,1.2,-0.0,0.29,0.07,0.88,-0.36,0.0,0.0,0.0
1752859172637,108.0,-32.0,133.0,-5.0,-5.0,-5.0,-0.1,0.3,0.6,0.27,0.08,0.89,-0.37,0.0,0.0,0.0
1752859172694,115.0,-31.0,130.0,-5.0,-7.0,-6.0,-0.3,-0.1,-0.4,0.25,0.09,0.88,-0.39,0.0,0.0,0.0
1752859172730,122.0,-29.0,128.0,-4.0,-6.0,-6.0,0.2,0.4,-0.5,0.24,0.09,0.87,-0.41,0.0,0.0,0.0
1752859172771,127.0,-26.0,127.0,-4.0,-7.0,-6.0,-0.0,0.3,-1.0,0.22,0.09,0.87,-0.43,0.0,0.0,0.0
1752859173363,176.0,-1.0,107.0,1.0,-9.0,-5.0,0.8,0.0,-2.0,0.02,-0.02,0.8,-0.59,0.0,0.0,0.0
1752859173409,174.0,-1.0,103.0,0.0,-8.0,-2.0,-1.0,2.0,1.6,0.03,-0.03,0.79,-0.61,0.0,0.0,0.0
1752859173451,172.0,-2.0,96.0,-1.0,-12.0,-1.0,0.6,0.1,-1.0,0.05,-0.02,0.74,-0.67,0.0,0.0,0.0
1752859173488,170.0,-3.0,89.0,-1.0,-12.0,-1.0,-0.6,-3.6,-3.4,0.06,-0.02,0.7,-0.71,0.0,0.0,0.0
1752859173572,168.0,-5.0,87.0,-0.0,-11.0,-1.0,0.3,-0.9,-1.2,0.07,-0.02,0.69,-0.72,0.0,0.0,0.0
1752859173613,168.0,-5.0,86.0,1.0,-7.0,-2.0,1.5,2.4,-2.0,0.08,-0.01,0.68,-0.73,0.0,0.0,0.0
1752859173657,168.0,-5.0,87.0,-2.0,-9.0,1.0,-0.9,-1.4,0.3,0.07,-0.01,0.69,-0.72,0.0,0.0,0.0
1752859173801,168.0,-6.0,87.0,-1.0,-9.0,-0.0,-0.3,0.4,-0.4,0.08,-0.0,0.69,-0.72,0.0,0.0,0.0
1752859173839,168.0,-6.0,87.0,-1.0,-9.0,0.0,-0.2,1.0,-0.5,0.07,-0.0,0.69,-0.72,0.0,0.0,0.0
1752859173881,168.0,-6.0,87.0,-1.0,-10.0,-0.0,-0.4,-0.4,-0.6,0.07,-0.0,0.69,-0.72,0.0,0.0,0.0
1752859173980,168.0,-6.0,87.0,-1.0,-9.0,0.0,-0.3,0.7,-0.4,0.07,-0.0,0.69,-0.72,0.0,0.0,0.0
1752859174022,168.0,-6.0,87.0,-1.0,-10.0,-0.0,-0.3,0.2,-0.6,0.07,-0.0,0.69,-0.72,0.0,0.0,0.0
1752859174063,168.0,-6.0,87.0,-1.0,-10.0,-0.0,-0.4,-0.5,-0.6,0.07,-0.0,0.69,-0.72,0.0,0.0,0.0
1752859174210,168.0,-6.0,87.0,-1.0,-10.0,-0.0,-0.4,-0.3,-0.7,0.07,0.0,0.69,-0.72,0.0,0.0,0.0
1752859174351,168.0,-6.0,87.0,-1.0,-10.0,0.0,-0.3,0.0,-0.4,0.07,0.0,0.69,-0.72,0.0,0.0,0.0
1752859174399,169.0,-6.0,87.0,-1.0,-10.0,0.0,-0.3,-0.1,-0.3,0.07,0.0,0.69,-0.72,0.0,0.0,0.0
1752859174537,169.0,-6.0,87.0,-1.0,-10.0,0.0,-0.3,0.1,-0.2,0.07,0.01,0.69,-0.72,0.0,0.0,0.0
1752859174582,170.0,-5.0,87.0,-1.0,-10.0,0.0,-0.2,0.2,-0.4,0.06,0.0,0.69,-0.72,0.0,0.0,0.0
1752859174617,171.0,-5.0,87.0,-1.0,-10.0,-0.0,-0.2,-0.2,-0.4,0.06,0.0,0.69,-0.72,0.0,0.0,0.0
1752859174985,174.0,-4.0,88.0,-1.0,-10.0,0.0,-0.3,0.2,-0.1,0.04,0.0,0.69,-0.72,0.0,0.0,0.0
1752859175042,173.0,-4.0,88.0,-1.0,-10.0,0.0,-0.2,0.0,-0.3,0.04,0.0,0.69,-0.72,0.0,0.0,0.0
1752859175071,173.0,-4.0,88.0,-1.0,-10.0,0.0,-0.2,0.0,-0.3,0.04,0.01,0.69,-0.72,0.0,0.0,0.0
1752859175116,173.0,-4.0,88.0,-1.0,-10.0,0.0,-0.2,-0.0,-0.3,0.04,0.01,0.69,-0.72,0.0,0.0,0.0
1752859175268,173.0,-4.0,88.0,-1.0,-10.0,-0.0,-0.1,-0.1,-0.3,0.04,0.01,0.69,-0.72,0.0,0.0,0.0
1752859175515,173.0,-4.0,88.0,-1.0,-10.0,-0.0,-0.1,-0.1,-0.2,0.05,0.01,0.7,-0.72,0.0,0.0,0.0
1752859175564,172.0,-5.0,89.0,-1.0,-10.0,0.0,-0.1,-0.0,-0.2,0.05,0.01,0.7,-0.71,0.0,0.0,0.0
1752859175796,172.0,-5.0,89.0,-1.0,-10.0,-0.0,-0.1,-0.1,-0.2,0.05,0.01,0.7,-0.71,0.0,0.0,0.0
1752859175936,172.0,-5.0,89.0,-1.0,-10.0,-0.0,-0.1,-0.1,-0.2,0.05,0.01,0.7,-0.71,0.0,0.0,0.0
1752859175976,172.0,-5.0,89.0,-1.0,-10.0,0.0,-0.1,-0.1,-0.0,0.05,0.01,0.7,-0.71,0.0,0.0,0.0
1752859176022,172.0,-5.0,89.0,-1.0,-10.0,0.0,-0.1,-0.1,-0.1,0.05,0.01,0.7,-0.71,0.0,0.0,0.0
1752859176313,172.0,-5.0,89.0,-1.0,-10.0,0.0,-0.1,-0.1,-0.1,0.05,0.01,0.7,-0.71,0.0,0.0,0.0
1752859176356,172.0,-5.0,89.0,-1.0,-10.0,0.0,-0.1,-0.1,-0.1,0.05,0.01,0.7,-0.71,0.0,0.0,0.0
1752859176498,172.0,-5.0,89.0,-1.0,-10.0,-0.0,-0.0,-0.1,-0.1,0.05,0.01,0.7,-0.71,0.0,0.0,0.0
1752859176641,172.0,-5.0,89.0,-1.0,-10.0,-0.0,-0.0,-0.1,-0.1,0.05,0.01,0.7,-0.71,0.0,0.0,0.0
1752859176682,172.0,-5.0,89.0,-1.0,-10.0,-0.0,-0.0,-0.1,-0.1,0.05,0.01,0.7,-0.71,0.0,0.0,0.0
1752859176825,172.0,-5.0,89.0,-1.0,-10.0,-0.0,-0.0,-0.1,-0.1,0.05,0.01,0.7,-0.71,0.0,0.0,0.0
1752859176876,172.0,-5.0,89.0,-1.0,-10.0,0.0,-0.1,-0.1,-0.1,0.05,0.01,0.7,-0.71,0.0,0.0,0.0
1752859176917,172.0,-5.0,89.0,-1.0,-10.0,-0.0,-0.0,-0.1,-0.1,0.05,0.01,0.7,-0.71,0.0,0.0,0.0
1752859176960,172.0,-5.0,89.0,-1.0,-10.0,-0.0,-0.0,-0.1,-0.1,0.05,0.01,0.7,-0.71,0.0,0.0,0.0
1752859177207,172.0,-5.0,89.0,-1.0,-10.0,0.0,-0.1,-0.1,-0.1,0.05,0.01,0.7,-0.71,0.0,0.0,0.0
1752859177245,172.0,-5.0,89.0,-1.0,-10.0,-0.0,-0.1,-0.1,-0.1,0.05,0.01,0.7,-0.71,0.0,0.0,0.0
1752859177278,172.0,-5.0,89.0,-1.0,-10.0,-0.0,-0.1,-0.1,-0.1,0.05,0.01,0.7,-0.71,0.0,0.0,0.0
1752859177428,172.0,-5.0,89.0,-1.0,-10.0,-0.0,-0.1,-0.1,-0.1,0.05,0.01,0.7,-0.71,0.0,0.0,0.0
1752859177478,172.0,-5.0,89.0,-1.0,-10.0,-0.0,-0.1,-0.1,-0.1,0.05,0.01,0.7,-0.71,0.0,0.0,0.0
1752859177614,172.0,-5.0,89.0,-1.0,-10.0,-0.0,-0.0,-0.1,-0.1,0.05,0.01,0.7,-0.71,0.0,0.0,0.0
1752859177664,172.0,-5.0,89.0,-1.0,-10.0,-0.0,-0.1,-0.1,-0.1,0.05,0.01,0.7,-0.71,0.0,0.0,0.0
1752859177697,172.0,-5.0,89.0,-1.0,-10.0,-0.0,-0.0,-0.1,-0.1,0.05,0.01,0.7,-0.71,0.0,0.0,0.0
1752859178297,172.0,-5.0,89.0,-1.0,-10.0,-0.0,-0.1,-0.1,-0.1,0.05,0.01,0.7,-0.71,0.0,0.0,0.0
1752859178436,172.0,-5.0,89.0,-1.0,-10.0,0.0,-0.0,-0.1,-0.1,0.05,0.01,0.7,-0.71,0.0,0.0,0.0
1752859178571,172.0,-5.0,89.0,-1.0,-10.0,-0.0,-0.1,-0.1,-0.1,0.05,0.01,0.7,-0.71,0.0,0.0,0.0
1752859178720,172.0,-5.0,89.0,-1.0,-10.0,0.0,-0.0,-0.1,-0.1,0.05,0.01,0.7,-0.71,0.0,0.0,0.0
1752859178972,172.0,-5.0,89.0,-1.0,-10.0,-0.0,-0.0,-0.1,-0.1,0.05,0.01,0.7,-0.71,0.0,0.0,0.0
1752859179007,172.0,-5.0,89.0,-1.0,-10.0,-0.0,-0.0,-0.1,-0.1,0.05,0.01,0.7,-0.71,0.0,0.0,0.0
1752859179039,172.0,-5.0,89.0,-1.0,-10.0,-0.0,-0.1,-0.1,-0.2,0.05,0.01,0.7,-0.71,0.0,0.0,0.0
1752859179082,172.0,-5.0,89.0,-1.0,-10.0,-0.0,-0.0,-0.1,-0.1,0.05,0.01,0.7,-0.71,0.0,0.0,0.0
1752859179239,172.0,-5.0,89.0,-1.0,-10.0,-0.0,-0.0,-0.1,-0.1,0.05,0.01,0.7,-0.71,0.0,0.0,0.0
1752859179275,172.0,-5.0,89.0,-1.0,-10.0,-0.0,-0.1,-0.1,-0.1,0.05,0.01,0.7,-0.71,0.0,0.0,0.0
1752859179526,172.0,-5.0,89.0,-1.0,-10.0,0.0,-0.0,-0.1,-0.1,0.05,0.01,0.7,-0.71,0.0,0.0,0.0
1752859179574,172.0,-5.0,89.0,-1.0,-10.0,-0.0,-0.1,-0.1,-0.1,0.05,0.01,0.7,-0.71,0.0,0.0,0.0
1752859179600,172.0,-5.0,89.0,-1.0,-10.0,-0.0,-0.0,-0.1,-0.2,0.05,0.01,0.7,-0.71,0.0,0.0,0.0
1752859179641,172.0,-5.0,89.0,-1.0,-10.0,0.0,-0.1,-0.1,-0.1,0.05,0.01,0.7,-0.71,0.0,0.0,0.0
1752859179694,172.0,-5.0,89.0,-1.0,-10.0,-0.0,-0.0,-0.1,-0.1,0.05,0.01,0.7,-0.71,0.0,0.0,0.0
1752859179829,172.0,-5.0,89.0,-1.0,-10.0,-0.0,-0.0,-0.1,-0.1,0.05,0.01,0.7,-0.71,0.0,0.0,0.0
1752859179975,172.0,-5.0,89.0,-1.0,-10.0,0.0,-0.0,-0.1,-0.1,0.05,0.01,0.7,-0.71,0.0,0.0,0.0
1752859180020,172.0,-5.0,89.0,-1.0,-10.0,-0.0,-0.0,-0.1,-0.1,0.05,0.01,0.7,-0.71,0.0,0.0,0.0
1752859180063,172.0,-5.0,89.0,-1.0,-10.0,-0.0,-0.0,-0.1,-0.1,0.05,0.01,0.7,-0.71,0.0,0.0,0.0
1752859180184,172.0,-5.0,89.0,-1.0,-10.0,-0.0,-0.0,-0.1,-0.1,0.05,0.01,0.7,-0.71,0.0,0.0,0.0
1752859180229,172.0,-5.0,89.0,-1.0,-10.0,-0.0,-0.0,-0.1,-0.1,0.05,0.01,0.7,-0.71,0.0,0.0,0.0
1752859180274,172.0,-5.0,89.0,-1.0,-10.0,0.0,-0.0,-0.1,-0.0,0.05,0.01,0.7,-0.71,0.0,0.0,0.0
1752859180520,172.0,-5.0,89.0,-1.0,-10.0,-0.0,0.0,0.0,0.0,0.05,0.01,0.7,-0.71,0.0,0.0,0.0
1752859180564,172.0,-5.0,89.0,-1.0,-10.0,-0.0,-0.1,-0.1,-0.1,0.05,0.01,0.7,-0.71,0.0,0.0,0.0
1752859180642,172.0,-5.0,89.0,-1.0,-10.0,-0.0,-0.0,-0.1,-0.1,0.05,0.01,0.7,-0.71,0.0,0.0,0.0
1752859180833,172.0,-5.0,89.0,-1.0,-10.0,-0.0,-0.1,-0.1,-0.1,0.05,0.01,0.7,-0.71,0.0,0.0,0.0
1752859180976,172.0,-5.0,89.0,-1.0,-10.0,0.0,-0.0,-0.1,-0.1,0.05,0.01,0.7,-0.71,0.0,0.0,0.0
1752859181017,172.0,-5.0,89.0,-1.0,-10.0,-0.0,-0.0,-0.1,-0.1,0.05,0.01,0.7,-0.71,0.0,0.0,0.0
1752859181058,172.0,-5.0,89.0,-1.0,-10.0,-0.0,-0.0,-0.1,-0.1,0.05,0.01,0.7,-0.71,0.0,0.0,0.0
1752859181093,172.0,-5.0,89.0,-1.0,-10.0,-0.0,-0.1,-0.1,-0.1,0.05,0.01,0.7,-0.71,0.0,0.0,0.0
1752859181195,172.0,-5.0,89.0,-1.0,-10.0,0.0,-0.1,-0.1,-0.1,0.05,0.01,0.7,-0.71,0.0,0.0,0.0
1752859181435,172.0,-5.0,89.0,-1.0,-10.0,0.0,-0.0,-0.1,-0.1,0.05,0.01,0.7,-0.71,0.0,0.0,0.0
1752859181478,172.0,-5.0,89.0,-1.0,-10.0,-0.0,-0.0,-0.1,-0.1,0.05,0.01,0.7,-0.71,0.0,0.0,0.0
1752859181832,172.0,-5.0,89.0,-1.0,-10.0,-0.0,-0.0,-0.1,-0.1,0.05,0.01,0.7,-0.71,0.0,0.0,0.0
1752859181878,172.0,-5.0,89.0,-1.0,-10.0,-0.0,-0.0,-0.1,-0.1,0.05,0.01,0.7,-0.71,0.0,0.0,0.0
1752859181914,172.0,-5.0,89.0,-1.0,-10.0,-0.0,-0.1,-0.1,-0.1,0.05,0.01,0.7,-0.71,0.0,0.0,0.0
1752859181949,172.0,-5.0,89.0,-1.0,-10.0,-0.0,-0.0,-0.1,-0.1,0.05,0.01,0.7,-0.71,0.0,0.0,0.0
1752859181992,172.0,-5.0,89.0,-1.0,-10.0,-0.0,-0.1,-0.1,-0.1,0.05,0.01,0.7,-0.71,0.0,0.0,0.0
1752859182134,172.0,-5.0,89.0,-1.0,-10.0,-0.0,-0.0,-0.1,-0.1,0.05,0.01,0.7,-0.71,0.0,0.0,0.0
1752859182179,172.0,-5.0,89.0,-1.0,-10.0,-0.0,-0.1,-0.1,-0.1,0.05,0.01,0.7,-0.71,0.0,0.0,0.0
1752859182324,172.0,-5.0,89.0,-1.0,-10.0,0.0,-0.0,-0.1,-0.1,0.05,0.01,0.7,-0.71,0.0,0.0,0.0
1752859182377,172.0,-5.0,89.0,-1.0,-10.0,-0.0,-0.0,-0.1,-0.1,0.05,0.01,0.7,-0.71,0.0,0.0,0.0
1752859182417,172.0,-5.0,89.0,-1.0,-10.0,-0.0,-0.0,-0.1,-0.1,0.05,0.01,0.7,-0.71,0.0,0.0,0.0
1752859182452,172.0,-5.0,89.0,-1.0,-10.0,-0.0,-0.1,-0.1,-0.1,0.05,0.01,0.7,-0.71,0.0,0.0,0.0
1752859182494,172.0,-5.0,89.0,-1.0,-10.0,-0.0,-0.0,-0.1,-0.1,0.05,0.01,0.7,-0.71,0.0,0.0,0.0
1752859183211,172.0,-5.0,89.0,-1.0,-10.0,-0.0,-0.0,-0.1,-0.1,0.05,0.01,0.7,-0.71,0.0,0.0,0.0
1752859183252,172.0,-5.0,89.0,-1.0,-10.0,-0.0,-0.0,-0.1,-0.1,0.05,0.01,0.7,-0.71,0.0,0.0,0.0
1752859183291,172.0,-5.0,89.0,-1.0,-10.0,-0.0,-0.0,-0.1,-0.1,0.05,0.01,0.7,-0.71,0.0,0.0,0.0
1752859183445,172.0,-5.0,89.0,-1.0,-10.0,-0.0,-0.0,-0.3,-0.2,0.05,0.01,0.7,-0.71,0.0,0.0,0.0
1752859183490,172.0,-5.0,89.0,-1.0,-10.0,-0.0,0.0,-0.2,-0.2,0.05,0.01,0.7,-0.71,0.0,0.0,0.0
1752859183528,172.0,-5.0,89.0,-1.0,-10.0,-0.0,-0.0,-0.2,-0.2,0.05,0.01,0.7,-0.71,0.0,0.0,0.0
1752859183578,172.0,-5.0,89.0,-1.0,-10.0,-0.0,-0.0,-0.1,-0.1,0.05,0.01,0.7,-0.71,0.0,0.0,0.0
1752859183652,172.0,-5.0,89.0,-1.0,-10.0,0.0,-0.0,0.0,-0.1,0.05,0.01,0.7,-0.71,0.0,0.0,0.0
1752859183695,172.0,-5.0,89.0,-1.0,-10.0,-0.0,-0.0,-0.3,-0.2,0.05,0.01,0.7,-0.71,0.0,0.0,0.0
1752859183742,172.0,-5.0,89.0,-1.0,-10.0,0.0,-0.0,-0.1,-0.1,0.05,0.01,0.7,-0.71,0.0,0.0,0.0
1752859184009,172.0,-5.0,89.0,-1.0,-10.0,0.0,-0.1,-0.1,-0.1,0.05,0.01,0.7,-0.71,0.0,0.0,0.0
1752859184140,172.0,-5.0,90.0,-1.0,-10.0,-0.0,-0.0,-0.1,-0.1,0.05,0.01,0.7,-0.71,0.0,0.0,0.0
1752859184183,172.0,-5.0,90.0,-1.0,-10.0,-0.0,0.0,0.0,0.0,0.05,0.01,0.7,-0.71,0.0,0.0,0.0
1752859184380,172.0,-5.0,90.0,-1.0,-10.0,-0.0,-0.0,-0.1,-0.1,0.05,0.01,0.7,-0.71,0.0,0.0,0.0
1752859184783,172.0,-5.0,90.0,-1.0,-10.0,0.0,-0.0,-0.1,-0.1,0.05,0.01,0.7,-0.71,0.0,0.0,0.0
1752859184825,172.0,-5.0,90.0,-1.0,-10.0,-0.0,-0.0,-0.1,-0.1,0.05,0.01,0.7,-0.71,0.0,0.0,0.0
1752859184869,172.0,-5.0,90.0,-1.0,-10.0,-0.0,-0.0,-0.1,-0.1,0.05,0.01,0.7,-0.71,0.0,0.0,0.0
1752859184903,172.0,-5.0,90.0,-1.0,-10.0,-0.0,-0.0,-0.2,-0.1,0.05,0.01,0.7,-0.71,0.0,0.0,0.0
1752859184954,172.0,-5.0,90.0,-1.0,-10.0,-0.0,-0.0,-0.1,-0.1,0.05,0.01,0.7,-0.71,0.0,0.0,0.0
1752859185186,172.0,-5.0,90.0,-1.0,-10.0,-0.0,-0.0,-0.2,-0.1,0.05,0.01,0.7,-0.71,0.0,0.0,0.0
1752859185438,172.0,-5.0,90.0,-1.0,-10.0,-0.0,-0.0,-0.1,-0.1,0.05,0.01,0.7,-0.71,0.0,0.0,0.0
1752859185474,172.0,-5.0,90.0,-1.0,-10.0,-0.0,-0.0,-0.1,-0.1,0.05,0.01,0.7,-0.71,0.0,0.0,0.0
1752859185521,172.0,-5.0,90.0,-1.0,-10.0,-0.0,-0.0,-0.1,-0.1,0.05,0.01,0.7,-0.71,0.0,0.0,0.0
1752859185556,172.0,-5.0,90.0,-1.0,-10.0,-0.0,-0.0,-0.1,-0.1,0.05,0.01,0.7,-0.71,0.0,0.0,0.0
1752859185925,172.0,-5.0,90.0,-1.0,-10.0,0.0,-0.0,-0.1,-0.1,0.05,0.01,0.7,-0.71,0.0,0.0,0.0
1752859185997,172.0,-5.0,90.0,-1.0,-10.0,-0.0,-0.0,-0.1,-0.0,0.05,0.01,0.7,-0.71,0.0,0.0,0.0
1752859186015,172.0,-5.0,90.0,-1.0,-10.0,-0.0,-0.0,-0.1,-0.1,0.05,0.01,0.7,-0.71,0.0,0.0,0.0
1752859186061,172.0,-5.0,90.0,-1.0,-10.0,-0.0,-0.0,-0.1,-0.1,0.05,0.01,0.7,-0.71,0.0,0.0,0.0
1752859186196,172.0,-5.0,90.0,-1.0,-10.0,-0.0,-0.0,-0.1,-0.1,0.05,0.01,0.7,-0.71,0.0,0.0,0.0
1752859186346,172.0,-5.0,90.0,-1.0,-10.0,-0.0,0.0,-0.2,-0.1,0.05,0.01,0.7,-0.71,0.0,0.0,0.0
1752859186390,172.0,-5.0,90.0,-1.0,-10.0,0.0,-0.0,-0.0,0.0,0.05,0.01,0.7,-0.71,0.0,0.0,0.0
1752859186433,172.0,-5.0,90.0,-1.0,-10.0,0.0,-0.0,0.1,0.1,0.05,0.01,0.71,-0.71,0.0,0.0,0.0
1752859186583,172.0,-5.0,90.0,-1.0,-10.0,-0.0,-0.0,-0.4,-0.2,0.05,0.01,0.7,-0.71,0.0,0.0,0.0
1752859186733,172.0,-5.0,90.0,-1.0,-10.0,-0.0,-0.0,0.1,0.0,0.05,0.01,0.7,-0.71,0.0,0.0,0.0
1752859186766,172.0,-5.0,90.0,-1.0,-10.0,0.0,-0.0,-0.1,-0.0,0.05,0.01,0.7,-0.71,0.0,0.0,0.0
1752859186808,172.0,-5.0,90.0,-1.0,-10.0,0.0,-0.0,-0.0,-0.0,0.05,0.01,0.7,-0.71,0.0,0.0,0.0
1752859186850,172.0,-5.0,90.0,-1.0,-10.0,-0.0,-0.0,-0.1,-0.1,0.05,0.01,0.7,-0.71,0.0,0.0,0.0
1752859187100,172.0,-5.0,90.0,-1.0,-10.0,-0.0,-0.0,-0.1,0.0,0.05,0.01,0.7,-0.71,0.0,0.0,0.0
1752859187352,172.0,-5.0,90.0,-1.0,-10.0,-0.0,-0.0,-0.1,-0.1,0.05,0.01,0.71,-0.71,0.0,0.0,0.0
1752859187402,172.0,-5.0,90.0,-1.0,-10.0,-0.0,-0.0,-0.1,-0.1,0.05,0.01,0.71,-0.71,0.0,0.0,0.0
1752859187636,172.0,-5.0,90.0,-1.0,-10.0,-0.0,-0.1,-0.1,-0.0,0.05,0.01,0.71,-0.71,0.0,0.0,0.0
1752859187686,172.0,-5.0,90.0,-1.0,-10.0,-0.0,-0.0,-0.1,-0.1,0.05,0.01,0.71,-0.71,0.0,0.0,0.0
1752859187720,172.0,-5.0,90.0,-1.0,-10.0,-0.0,-0.0,-0.1,-0.1,0.05,0.01,0.71,-0.71,0.0,0.0,0.0
1752859187767,172.0,-5.0,90.0,-1.0,-10.0,-0.0,-0.0,-0.1,-0.1,0.05,0.01,0.71,-0.71,0.0,0.0,0.0
1752859187804,172.0,-5.0,90.0,-1.0,-10.0,-0.0,-0.0,-0.1,-0.1,0.05,0.01,0.71,-0.71,0.0,0.0,0.0
1752859188047,172.0,-5.0,90.0,-1.0,-10.0,-0.0,-0.0,-0.1,-0.0,0.05,0.01,0.71,-0.71,0.0,0.0,0.0
1752859188178,172.0,-5.0,90.0,-1.0,-10.0,0.0,-0.0,-0.2,-0.1,0.05,0.01,0.71,-0.71,0.0,0.0,0.0
1752859213978,0.0,3.0,95.0,0.0,-10.0,-1.0,0.0,-0.1,0.0,0.68,-0.73,-0.03,-0.0,0.0,0.0,0.0
1752859214128,0.0,3.0,95.0,0.0,-10.0,-1.0,0.0,-0.2,-0.0,0.68,-0.73,-0.03,-0.0,0.0,0.0,0.0
1752859214268,0.0,3.0,95.0,0.0,-10.0,-1.0,0.0,-0.1,0.0,0.68,-0.73,-0.03,-0.0,0.0,0.0,0.0
1752859214515,0.0,3.0,95.0,0.0,-10.0,-1.0,0.0,-0.2,0.0,0.68,-0.73,-0.03,-0.0,0.0,0.0,0.0
1752859214558,0.0,3.0,95.0,0.0,-10.0,-1.0,0.0,-0.2,0.0,0.68,-0.73,-0.03,-0.0,0.0,0.0,0.0
1752859214595,0.0,3.0,95.0,0.0,-10.0,-1.0,0.0,-0.1,0.0,0.68,-0.73,-0.03,-0.0,0.0,0.0,0.0
1752859214639,0.0,3.0,95.0,0.0,-10.0,-1.0,0.0,-0.1,-0.0,0.68,-0.73,-0.03,-0.0,0.0,0.0,0.0
1752859214679,0.0,3.0,95.0,0.0,-10.0,-1.0,0.0,-0.1,0.0,0.68,-0.73,-0.03,-0.0,0.0,0.0,0.0
1752859214721,0.0,3.0,95.0,0.0,-10.0,-1.0,0.0,-0.1,0.0,0.68,-0.73,-0.03,-0.0,0.0,0.0,0.0
1752859214866,0.0,3.0,95.0,0.0,-10.0,-1.0,0.0,-0.2,-0.0,0.68,-0.73,-0.03,-0.0,0.0,0.0,0.0
1752859214908,0.0,3.0,95.0,0.0,-10.0,-1.0,0.0,-0.1,0.0,0.68,-0.73,-0.03,-0.0,0.0,0.0,0.0
1752859215050,0.0,3.0,95.0,0.0,-10.0,-1.0,0.0,-0.1,-0.0,0.68,-0.73,-0.03,-0.0,0.0,0.0,0.0
1752859215088,0.0,3.0,95.0,0.0,-10.0,-1.0,0.0,-0.1,0.0,0.68,-0.73,-0.03,-0.0,0.0,0.0,0.0
1752859215132,0.0,3.0,95.0,0.0,-10.0,-1.0,0.0,-0.1,0.0,0.68,-0.73,-0.03,-0.0,0.0,0.0,0.0
1752859215277,0.0,3.0,95.0,0.0,-10.0,-1.0,0.0,-0.1,0.0,0.68,-0.73,-0.03,-0.0,0.0,0.0,0.0
1752859215420,0.0,3.0,95.0,0.0,-10.0,-1.0,0.0,-0.1,0.0,0.68,-0.73,-0.03,-0.0,0.0,0.0,0.0
1752859215668,0.0,3.0,95.0,0.0,-10.0,-1.0,0.0,-0.1,-0.0,0.68,-0.73,-0.03,-0.0,0.0,0.0,0.0
1752859215710,0.0,3.0,95.0,0.0,-10.0,-1.0,0.0,-0.1,-0.0,0.68,-0.73,-0.03,-0.0,0.0,0.0,0.0
1752859215851,0.0,3.0,95.0,0.0,-10.0,-1.0,0.0,-0.1,-0.0,0.68,-0.73,-0.03,-0.0,0.0,0.0,0.0
1752859215890,0.0,3.0,95.0,0.0,-10.0,-1.0,0.0,-0.1,-0.0,0.68,-0.73,-0.03,-0.0,0.0,0.0,0.0
1752859215932,0.0,3.0,95.0,0.0,-10.0,-1.0,0.0,-0.1,-0.0,0.68,-0.73,-0.03,-0.0,0.0,0.0,0.0
1752859216072,0.0,3.0,95.0,0.0,-10.0,-1.0,0.0,-0.1,0.0,0.68,-0.73,-0.03,-0.0,0.0,0.0,0.0
1752859216318,0.0,3.0,95.0,0.0,-10.0,-1.0,0.0,-0.1,-0.0,0.68,-0.73,-0.03,-0.0,0.0,0.0,0.0
1752859216462,0.0,3.0,95.0,0.0,-10.0,-1.0,0.0,-0.1,-0.0,0.68,-0.73,-0.03,-0.0,0.0,0.0,0.0
1752859216502,0.0,3.0,95.0,0.0,-10.0,-1.0,0.0,-0.1,0.0,0.68,-0.73,-0.03,-0.0,0.0,0.0,0.0
1752859216539,0.0,3.0,95.0,0.0,-10.0,-1.0,0.0,-0.1,0.0,0.68,-0.73,-0.03,-0.0,0.0,0.0,0.0
1752859216690,0.0,3.0,95.0,0.0,-10.0,-1.0,0.0,-0.1,-0.0,0.68,-0.73,-0.03,-0.0,0.0,0.0,0.0
1752859216735,0.0,3.0,95.0,0.0,-10.0,-1.0,0.0,-0.1,0.0,0.68,-0.73,-0.03,-0.0,0.0,0.0,0.0
1752859216979,0.0,3.0,95.0,0.0,-10.0,-1.0,0.0,-0.1,-0.0,0.68,-0.73,-0.03,-0.0,0.0,0.0,0.0
1752859217024,0.0,3.0,95.0,0.0,-10.0,-1.0,0.0,-0.1,0.0,0.68,-0.73,-0.03,-0.0,0.0,0.0,0.0
1752859217170,0.0,3.0,95.0,0.0,-10.0,-1.0,0.0,-0.1,0.0,0.68,-0.73,-0.03,-0.0,0.0,0.0,0.0
1752859217316,0.0,3.0,95.0,0.0,-10.0,-1.0,0.0,-0.1,0.0,0.68,-0.73,-0.03,-0.0,0.0,0.0,0.0
1752859217355,0.0,3.0,95.0,0.0,-10.0,-1.0,0.0,-0.1,0.0,0.68,-0.73,-0.03,-0.0,0.0,0.0,0.0
1752859217395,0.0,3.0,95.0,0.0,-10.0,-1.0,0.0,-0.1,-0.0,0.68,-0.73,-0.03,-0.0,0.0,0.0,0.0
1752859217542,0.0,3.0,95.0,0.0,-10.0,-1.0,0.0,-0.1,-0.0,0.68,-0.73,-0.03,-0.0,0.0,0.0,0.0
1752859217585,0.0,3.0,95.0,0.0,-10.0,-1.0,0.0,-0.1,0.0,0.68,-0.73,-0.03,-0.0,0.0,0.0,0.0
1752859217732,0.0,3.0,95.0,0.0,-10.0,-1.0,0.0,-0.1,0.0,0.68,-0.73,-0.03,-0.0,0.0,0.0,0.0
1752859217776,0.0,3.0,95.0,0.0,-10.0,-1.0,0.0,-0.1,0.0,0.68,-0.73,-0.03,-0.0,0.0,0.0,0.0
1752859217824,0.0,3.0,95.0,0.0,-10.0,-1.0,0.0,-0.1,-0.0,0.68,-0.73,-0.03,-0.0,0.0,0.0,0.0
1752859217865,0.0,3.0,95.0,0.0,-10.0,-1.0,0.0,-0.1,0.0,0.68,-0.73,-0.03,-0.0,0.0,0.0,0.0
1752859217906,0.0,3.0,95.0,0.0,-10.0,-1.0,0.0,-0.1,-0.0,0.68,-0.73,-0.03,-0.0,0.0,0.0,0.0
1752859217946,0.0,3.0,95.0,0.0,-10.0,-1.0,0.0,-0.1,-0.0,0.68,-0.73,-0.03,-0.0,0.0,0.0,0.0
1752859217986,0.0,3.0,95.0,0.0,-10.0,-1.0,0.0,-0.1,-0.0,0.68,-0.73,-0.03,-0.0,0.0,0.0,0.0
1752859218132,0.0,3.0,95.0,0.0,-10.0,-1.0,0.0,-0.2,0.0,0.68,-0.73,-0.03,-0.0,0.0,0.0,0.0
1752859218182,0.0,3.0,95.0,0.0,-10.0,-1.0,0.0,-0.1,0.0,0.68,-0.73,-0.03,-0.0,0.0,0.0,0.0
1752859218427,0.0,3.0,95.0,0.0,-10.0,-1.0,0.0,-0.1,0.0,0.68,-0.73,-0.03,-0.0,0.0,0.0,0.0
1752859218574,0.0,3.0,95.0,0.0,-10.0,-1.0,0.0,-0.1,-0.0,0.68,-0.73,-0.03,-0.0,0.0,0.0,0.0
1752859218617,0.0,3.0,95.0,0.0,-10.0,-1.0,0.0,-0.1,0.0,0.68,-0.73,-0.03,-0.0,0.0,0.0,0.0
1752859218658,0.0,3.0,95.0,0.0,-10.0,-1.0,0.0,-0.1,0.0,0.68,-0.73,-0.03,-0.0,0.0,0.0,0.0
1752859218703,0.0,3.0,95.0,0.0,-10.0,-1.0,0.0,-0.2,-0.0,0.68,-0.73,-0.03,-0.0,0.0,0.0,0.0
1752859219299,0.0,3.0,95.0,0.0,-10.0,-1.0,0.0,-0.1,-0.0,0.68,-0.73,-0.03,-0.0,0.0,0.0,0.0
1752859219339,0.0,3.0,95.0,0.0,-10.0,-1.0,0.0,-0.1,0.0,0.68,-0.73,-0.03,-0.0,0.0,0.0,0.0
1752859219384,0.0,3.0,95.0,0.0,-10.0,-1.0,0.0,-0.1,-0.0,0.68,-0.73,-0.03,-0.0,0.0,0.0,0.0
1752859219629,0.0,3.0,95.0,0.0,-10.0,-1.0,0.0,-0.1,0.0,0.68,-0.73,-0.03,-0.0,0.0,0.0,0.0
1752859219775,0.0,3.0,95.0,0.0,-10.0,-1.0,0.0,-0.1,0.0,0.68,-0.73,-0.03,-0.0,0.0,0.0,0.0
1752859219819,0.0,3.0,95.0,0.0,-10.0,-1.0,0.0,-0.1,0.0,0.68,-0.73,-0.03,-0.0,0.0,0.0,0.0
1752859219856,0.0,3.0,95.0,0.0,-10.0,-1.0,0.0,-0.1,-0.0,0.68,-0.73,-0.03,-0.0,0.0,0.0,0.0
1752859219896,0.0,3.0,95.0,0.0,-10.0,-1.0,0.0,-0.1,-0.0,0.68,-0.73,-0.03,-0.0,0.0,0.0,0.0
1752859219942,0.0,3.0,95.0,0.0,-10.0,-1.0,0.0,-0.1,0.0,0.68,-0.73,-0.03,-0.0,0.0,0.0,0.0
1752859220137,0.0,3.0,95.0,0.0,-10.0,-1.0,0.0,-0.1,0.0,0.68,-0.73,-0.03,-0.0,0.0,0.0,0.0
1752859220232,0.0,3.0,95.0,0.0,-10.0,-1.0,0.0,-0.2,-0.0,0.68,-0.73,-0.03,-0.0,0.0,0.0,0.0
1752859220376,0.0,3.0,95.0,0.0,-10.0,-1.0,0.0,-0.1,0.0,0.68,-0.73,-0.03,-0.0,0.0,0.0,0.0
1752859220520,0.0,3.0,95.0,0.0,-10.0,-1.0,0.0,-0.1,-0.0,0.68,-0.73,-0.03,-0.0,0.0,0.0,0.0
1752859220560,0.0,3.0,95.0,0.0,-10.0,-1.0,0.0,-0.1,-0.0,0.68,-0.73,-0.03,-0.0,0.0,0.0,0.0
1752859220598,0.0,3.0,95.0,0.0,-10.0,-1.0,0.0,-0.1,0.0,0.68,-0.73,-0.03,-0.0,0.0,0.0,0.0
1752859220641,0.0,3.0,95.0,0.0,-10.0,-1.0,0.0,-0.1,0.0,0.68,-0.73,-0.03,-0.0,0.0,0.0,0.0
1752859220686,0.0,3.0,95.0,0.0,-10.0,-1.0,0.0,-0.1,-0.0,0.68,-0.73,-0.03,-0.0,0.0,0.0,0.0
1752859220832,0.0,3.0,95.0,0.0,-10.0,-1.0,0.0,-0.1,-0.0,0.68,-0.73,-0.03,-0.0,0.0,0.0,0.0
1752859220983,0.0,3.0,95.0,0.0,-10.0,-1.0,0.0,-0.1,-0.0,0.68,-0.73,-0.03,-0.0,0.0,0.0,0.0
1752859221124,0.0,3.0,95.0,0.0,-10.0,-1.0,0.0,-0.1,0.0,0.68,-0.73,-0.03,-0.0,0.0,0.0,0.0
1752859221163,0.0,3.0,95.0,0.0,-10.0,-1.0,0.0,-0.1,0.0,0.68,-0.73,-0.03,-0.0,0.0,0.0,0.0
1752859221200,0.0,3.0,95.0,0.0,-10.0,-1.0,0.0,-0.1,0.0,0.68,-0.73,-0.03,-0.0,0.0,0.0,0.0
1752859221250,0.0,3.0,95.0,0.0,-10.0,-1.0,0.0,-0.1,0.0,0.68,-0.73,-0.03,-0.0,0.0,0.0,0.0
1752859221397,0.0,3.0,95.0,0.0,-10.0,-1.0,0.0,-0.1,-0.0,0.68,-0.73,-0.03,-0.0,0.0,0.0,0.0
1752859221534,0.0,3.0,95.0,0.0,-10.0,-1.0,0.0,-0.1,0.0,0.68,-0.73,-0.03,-0.0,0.0,0.0,0.0
1752859221684,0.0,3.0,95.0,0.0,-10.0,-1.0,0.0,-0.1,-0.0,0.68,-0.73,-0.03,-0.0,0.0,0.0,0.0
1752859221934,0.0,3.0,95.0,0.0,-10.0,-1.0,0.0,-0.1,0.0,0.68,-0.73,-0.03,-0.0,0.0,0.0,0.0
1752859221960,0.0,3.0,95.0,0.0,-10.0,-1.0,0.0,-0.1,-0.0,0.68,-0.73,-0.03,-0.0,0.0,0.0,0.0
1752859222002,0.0,3.0,95.0,0.0,-10.0,-1.0,0.0,-0.1,-0.0,0.68,-0.73,-0.03,-0.0,0.0,0.0,0.0
1752859222052,0.0,3.0,95.0,0.0,-10.0,-1.0,0.0,-0.1,-0.0,0.68,-0.73,-0.03,-0.0,0.0,0.0,0.0
1752859222192,0.0,3.0,95.0,0.0,-10.0,-1.0,0.0,-0.1,0.0,0.68,-0.73,-0.03,-0.0,0.0,0.0,0.0
1752859222434,0.0,3.0,95.0,0.0,-10.0,-1.0,0.0,-0.1,-0.0,0.68,-0.73,-0.03,-0.0,0.0,0.0,0.0
1752859222580,0.0,3.0,95.0,0.0,-10.0,-1.0,0.0,-0.1,-0.0,0.68,-0.73,-0.03,-0.0,0.0,0.0,0.0
1752859222623,0.0,3.0,95.0,0.0,-10.0,-1.0,0.0,-0.1,0.0,0.68,-0.73,-0.03,-0.0,0.0,0.0,0.0
1752859222663,0.0,3.0,95.0,0.0,-10.0,-1.0,0.0,-0.1,-0.0,0.68,-0.73,-0.03,-0.0,0.0,0.0,0.0
1752859222708,0.0,3.0,95.0,0.0,-10.0,-1.0,0.0,-0.1,-0.0,0.68,-0.73,-0.03,-0.0,0.0,0.0,0.0
1752859222748,0.0,3.0,95.0,0.0,-10.0,-1.0,0.0,-0.1,0.0,0.68,-0.73,-0.03,-0.0,0.0,0.0,0.0
1752859222892,0.0,3.0,95.0,0.0,-10.0,-1.0,0.0,-0.1,0.0,0.68,-0.73,-0.03,-0.0,0.0,0.0,0.0
1752859223140,0.0,3.0,95.0,0.0,-10.0,-1.0,0.0,-0.1,0.0,0.68,-0.73,-0.03,-0.0,0.0,0.0,0.0
1752859223287,0.0,3.0,95.0,0.0,-10.0,-1.0,0.0,-0.1,0.0,0.68,-0.73,-0.03,-0.0,0.0,0.0,0.0
1752859223316,0.0,3.0,95.0,0.0,-10.0,-1.0,0.0,-0.1,-0.0,0.68,-0.73,-0.03,-0.0,0.0,0.0,0.0
1752859223355,0.0,3.0,95.0,0.0,-10.0,-1.0,0.0,-0.1,-0.0,0.68,-0.73,-0.03,-0.0,0.0,0.0,0.0
1752859223400,0.0,3.0,95.0,0.0,-10.0,-1.0,0.0,-0.2,-0.0,0.68,-0.73,-0.03,-0.0,0.0,0.0,0.0
1752859223545,0.0,3.0,95.0,0.0,-10.0,-1.0,0.0,-0.1,0.0,0.68,-0.73,-0.03,-0.0,0.0,0.0,0.0
1752859223593,0.0,3.0,95.0,0.0,-10.0,-1.0,0.0,-0.1,-0.0,0.68,-0.73,-0.03,-0.0,0.0,0.0,0.0
1752859223732,0.0,3.0,95.0,0.0,-10.0,-1.0,0.0,-0.1,-0.0,0.68,-0.73,-0.03,-0.0,0.0,0.0,0.0
1752859223885,0.0,3.0,95.0,0.0,-10.0,-1.0,0.0,-0.1,-0.0,0.68,-0.73,-0.03,-0.0,0.0,0.0,0.0
1752859223919,0.0,3.0,95.0,0.0,-10.0,-1.0,0.0,-0.1,-0.0,0.68,-0.73,-0.03,-0.0,0.0,0.0,0.0
1752859223954,0.0,3.0,95.0,0.0,-10.0,-1.0,0.0,-0.1,0.0,0.68,-0.73,-0.03,-0.0,0.0,0.0,0.0
1752859224004,0.0,3.0,95.0,0.0,-10.0,-1.0,0.0,-0.1,0.0,0.68,-0.73,-0.03,-0.0,0.0,0.0,0.0
1752859224600,0.0,3.0,95.0,0.0,-10.0,-1.0,0.0,-0.1,-0.0,0.68,-0.73,-0.03,-0.0,0.0,0.0,0.0
1752859224653,0.0,3.0,95.0,0.0,-10.0,-1.0,0.0,-0.1,-0.0,0.68,-0.73,-0.03,-0.0,0.0,0.0,0.0
1752859224794,0.0,3.0,95.0,0.0,-10.0,-1.0,0.0,-0.1,0.0,0.68,-0.73,-0.03,-0.0,0.0,0.0,0.0
1752859225037,0.0,3.0,95.0,0.0,-10.0,-1.0,0.0,-0.1,0.0,0.68,-0.73,-0.03,-0.0,0.0,0.0,0.0
1752859225185,0.0,3.0,95.0,0.0,-10.0,-1.0,0.0,-0.1,0.0,0.68,-0.73,-0.03,-0.0,0.0,0.0,0.0
1752859225217,0.0,3.0,95.0,0.0,-10.0,-1.0,0.0,-0.1,0.0,0.68,-0.73,-0.03,-0.0,0.0,0.0,0.0
1752859225268,0.0,3.0,95.0,0.0,-10.0,-1.0,0.0,-0.1,-0.0,0.68,-0.73,-0.03,-0.0,0.0,0.0,0.0
1752859225305,0.0,3.0,95.0,0.0,-10.0,-1.0,0.0,-0.1,0.0,0.68,-0.73,-0.03,-0.0,0.0,0.0,0.0
1752859225457,0.0,3.0,95.0,0.0,-10.0,-1.0,0.0,-0.1,-0.0,0.68,-0.73,-0.03,-0.0,0.0,0.0,0.0
1752859225595,0.0,3.0,95.0,0.0,-10.0,-1.0,0.0,-0.1,0.0,0.68,-0.73,-0.03,-0.0,0.0,0.0,0.0
1752859225738,0.0,3.0,95.0,0.0,-10.0,-1.0,0.0,-0.1,0.0,0.68,-0.73,-0.03,-0.0,0.0,0.0,0.0
1752859225884,0.0,3.0,95.0,0.0,-10.0,-1.0,0.0,-0.1,-0.0,0.68,-0.73,-0.03,-0.0,0.0,0.0,0.0
1752859225919,0.0,3.0,95.0,0.0,-10.0,-1.0,0.0,-0.1,-0.0,0.68,-0.73,-0.03,-0.0,0.0,0.0,0.0
1752859225972,0.0,3.0,95.0,0.0,-10.0,-1.0,0.0,-0.1,-0.1,0.68,-0.73,-0.03,-0.0,0.0,0.0,0.0
1752859226008,0.0,3.0,95.0,0.0,-10.0,-1.0,0.0,-0.1,0.0,0.68,-0.73,-0.03,-0.0,0.0,0.0,0.0
1752859226248,0.0,3.0,95.0,0.0,-10.0,-1.0,0.0,-0.1,-0.0,0.68,-0.73,-0.03,-0.0,0.0,0.0,0.0
1752859226493,0.0,3.0,95.0,0.0,-10.0,-1.0,0.0,-0.1,0.0,0.68,-0.73,-0.03,-0.0,0.0,0.0,0.0
1752859226539,0.0,3.0,95.0,0.0,-10.0,-1.0,0.0,-0.1,-0.0,0.68,-0.73,-0.03,-0.0,0.0,0.0,0.0
1752859226576,0.0,3.0,95.0,0.0,-10.0,-1.0,0.0,-0.1,-0.1,0.68,-0.73,-0.03,-0.0,0.0,0.0,0.0
1752859226610,0.0,3.0,95.0,0.0,-10.0,-1.0,0.0,-0.1,-0.0,0.68,-0.73,-0.03,-0.0,0.0,0.0,0.0
1752859226660,0.0,3.0,95.0,0.0,-10.0,-1.0,0.0,-0.1,-0.0,0.68,-0.73,-0.03,-0.0,0.0,0.0,0.0
1752859226794,0.0,3.0,95.0,0.0,-10.0,-1.0,0.0,-0.1,0.0,0.68,-0.73,-0.03,-0.0,0.0,0.0,0.0
1752859226944,0.0,3.0,95.0,0.0,-10.0,-1.0,0.0,-0.1,-0.0,0.68,-0.73,-0.03,-0.0,0.0,0.0,0.0
1752859226985,0.0,3.0,95.0,0.0,-10.0,-1.0,0.0,-0.1,0.0,0.68,-0.73,-0.03,-0.0,0.0,0.0,0.0
1752859227027,0.0,3.0,95.0,0.0,-10.0,-1.0,0.0,-0.1,-0.0,0.68,-0.73,-0.03,-0.0,0.0,0.0,0.0
1752859227061,0.0,3.0,95.0,0.0,-10.0,-1.0,0.0,-0.1,-0.0,0.68,-0.73,-0.03,-0.0,0.0,0.0,0.0
1752859227111,0.0,3.0,95.0,0.0,-10.0,-1.0,0.0,-0.1,-0.0,0.68,-0.73,-0.03,-0.0,0.0,0.0,0.0
1752859227359,0.0,3.0,95.0,0.0,-10.0,-1.0,0.0,-0.1,-0.0,0.68,-0.73,-0.03,-0.0,0.0,0.0,0.0
1752859227496,0.0,3.0,95.0,0.0,-10.0,-1.0,0.0,-0.1,0.0,0.68,-0.73,-0.03,-0.0,0.0,0.0,0.0
1752859227546,0.0,3.0,95.0,1.0,-10.0,-1.0,0.0,-0.1,-0.1,0.68,-0.73,-0.03,-0.0,0.0,0.0,0.0
1752859227576,0.0,3.0,95.0,0.0,-10.0,-1.0,0.0,-0.1,-0.1,0.68,-0.73,-0.03,-0.0,0.0,0.0,0.0
1752859227613,0.0,3.0,95.0,0.0,-10.0,-1.0,0.0,-0.1,-0.0,0.68,-0.73,-0.03,-0.0,0.0,0.0,0.0
1752859227659,0.0,3.0,95.0,0.0,-10.0,-1.0,0.0,-0.1,-0.1,0.68,-0.73,-0.03,-0.0,0.0,0.0,0.0
1752859227809,0.0,3.0,95.0,0.0,-10.0,-1.0,0.0,-0.2,0.0,0.68,-0.73,-0.03,-0.0,0.0,0.0,0.0
1752859227846,0.0,3.0,95.0,0.0,-10.0,-1.0,0.0,-0.1,-0.0,0.68,-0.73,-0.03,-0.0,0.0,0.0,0.0
1752859227996,0.0,3.0,95.0,0.0,-10.0,-1.0,0.0,-0.1,-0.0,0.68,-0.73,-0.03,-0.0,0.0,0.0,0.0
1752859228054,0.0,3.0,95.0,0.0,-10.0,-1.0,0.0,-0.1,-0.0,0.68,-0.73,-0.03,-0.0,0.0,0.0,0.0
1752859228104,0.0,3.0,95.0,0.0,-10.0,-1.0,0.0,-0.1,-0.0,0.68,-0.73,-0.03,-0.0,0.0,0.0,0.0
1752859228215,0.0,3.0,95.0,0.0,-10.0,-1.0,0.0,-0.2,-0.0,0.68,-0.73,-0.03,-0.0,0.0,0.0,0.0
1752859228268,0.0,3.0,95.0,0.0,-10.0,-1.0,0.0,-0.1,-0.0,0.68,-0.73,-0.03,-0.0,0.0,0.0,0.0
1752859228626,0.0,3.0,95.0,0.0,-10.0,-1.0,0.0,-0.1,-0.1,0.68,-0.73,-0.03,-0.0,0.0,0.0,0.0
1752859228660,0.0,3.0,95.0,0.0,-10.0,-1.0,0.0,-0.1,-0.0,0.68,-0.73,-0.03,-0.0,0.0,0.0,0.0
1752859228806,0.0,3.0,95.0,0.0,-10.0,-1.0,0.0,-0.1,-0.0,0.68,-0.73,-0.03,-0.0,0.0,0.0,0.0
1752859228957,0.0,3.0,95.0,0.0,-10.0,-1.0,0.0,-0.1,-0.0,0.68,-0.73,-0.03,-0.0,0.0,0.0,0.0
1752859229094,0.0,3.0,95.0,0.0,-10.0,-1.0,0.0,-0.1,-0.0,0.68,-0.73,-0.03,-0.0,0.0,0.0,0.0
1752859229241,0.0,3.0,95.0,0.0,-10.0,-1.0,0.0,-0.1,-0.0,0.68,-0.73,-0.03,-0.0,0.0,0.0,0.0
1752859229277,0.0,3.0,95.0,0.0,-10.0,-1.0,0.0,-0.1,-0.0,0.68,-0.73,-0.03,-0.0,0.0,0.0,0.0
1752859229324,0.0,3.0,95.0,0.0,-10.0,-1.0,0.0,-0.2,-0.0,0.68,-0.73,-0.03,-0.0,0.0,0.0,0.0
1752859229462,0.0,3.0,95.0,0.0,-10.0,-1.0,0.0,-0.1,-0.0,0.68,-0.73,-0.03,-0.0,0.0,0.0,0.0
1752859229503,0.0,3.0,95.0,0.0,-10.0,-1.0,0.0,-0.1,-0.0,0.68,-0.73,-0.03,-0.0,0.0,0.0,0.0
1752859230118,0.0,3.0,95.0,1.0,-10.0,-1.0,0.0,-0.1,-0.0,0.68,-0.74,-0.03,-0.0,0.0,0.0,0.0
1752859230251,0.0,3.0,95.0,1.0,-10.0,-1.0,0.0,-0.1,0.0,0.68,-0.74,-0.03,-0.0,0.0,0.0,0.0
1752859230407,360.0,3.0,95.0,-1.0,-1.0,-3.0,0.0,-8.6,1.2,0.68,-0.74,-0.04,-0.0,0.0,0.0,0.0
1752859230441,359.0,2.0,96.0,-2.0,-13.0,6.0,-0.6,-3.6,6.1,0.67,-0.74,-0.04,0.0,0.0,0.0,0.0
1752859230482,0.0,4.0,100.0,7.0,-6.0,-15.0,1.2,3.3,-5.1,0.64,-0.76,-0.05,-0.0,0.0,0.0,0.0
1752859230522,3.0,6.0,107.0,-1.0,-13.0,-9.0,-1.9,-3.4,-5.5,0.6,-0.79,-0.06,-0.01,0.0,0.0,0.0
1752859230566,7.0,7.0,112.0,1.0,-12.0,-4.0,-0.3,-3.5,-0.1,0.57,-0.82,-0.07,-0.03,0.0,0.0,0.0
1752859230809,167.0,6.0,172.0,-6.0,1.0,-9.0,-2.7,-1.9,-0.6,0.51,-0.85,-0.07,-0.05,0.0,0.0,0.0
1752859230960,125.0,-58.0,-140.0,-6.0,12.0,-11.0,-1.1,7.5,-4.4,-0.19,-0.95,-0.11,0.22,0.0,0.0,0.0
1752859230994,114.0,-66.0,-118.0,-9.0,6.0,-1.0,-0.8,1.6,0.3,-0.35,-0.76,-0.15,0.53,0.0,0.0,0.0
1752859231044,106.0,-70.0,-84.0,-9.0,4.0,2.0,0.5,0.4,1.0,-0.42,-0.68,-0.2,0.57,0.0,0.0,0.0
1752859231077,107.0,-66.0,-73.0,-7.0,7.0,-1.0,1.5,2.7,-2.3,-0.44,-0.65,-0.17,0.6,0.0,0.0,0.0
1752859231125,104.0,-61.0,-68.0,-7.0,5.0,0.0,1.6,-0.0,-1.5,-0.46,-0.63,-0.12,0.61,0.0,0.0,0.0
1752859231165,96.0,-54.0,-67.0,-6.0,4.0,2.0,1.6,-1.1,-0.4,-0.51,-0.61,-0.1,0.59,0.0,0.0,0.0
1752859231320,89.0,-48.0,-73.0,-5.0,3.0,9.0,0.1,-3.7,4.4,-0.55,-0.62,-0.07,0.55,0.0,0.0,0.0
1752859231462,52.0,-35.0,-108.0,-7.0,3.0,-1.0,-1.1,-3.4,1.2,-0.55,-0.78,-0.15,0.27,0.0,0.0,0.0
1752859231513,50.0,-35.0,-119.0,-7.0,6.0,-7.0,-0.9,-1.1,-2.3,-0.5,-0.81,-0.19,0.23,0.0,0.0,0.0
1752859231563,52.0,-35.0,-129.0,-7.0,6.0,-4.0,-0.0,0.1,1.4,-0.45,-0.83,-0.24,0.22,0.0,0.0,0.0
1752859231596,58.0,-36.0,-138.0,-6.0,5.0,-6.0,-0.4,0.2,-0.5,-0.39,-0.85,-0.28,0.22,0.0,0.0,0.0
1752859231630,71.0,-37.0,-148.0,-6.0,5.0,-9.0,-0.8,0.2,-1.4,-0.33,-0.87,-0.3,0.23,0.0,0.0,0.0
1752859231679,141.0,-38.0,-156.0,-7.0,2.0,-7.0,-0.6,-0.8,-0.3,-0.28,-0.87,-0.31,0.25,0.0,0.0,0.0
1752859231727,140.0,-40.0,-161.0,-7.0,1.0,-8.0,-0.5,-1.1,-0.4,-0.25,-0.87,-0.31,0.27,0.0,0.0,0.0
1752859231863,141.0,-42.0,-166.0,-7.0,1.0,-8.0,0.5,-0.2,0.8,-0.22,-0.87,-0.31,0.3,0.0,0.0,0.0
1752859232013,142.0,-63.0,-173.0,-9.0,1.0,-2.0,1.2,0.1,0.9,-0.17,-0.82,-0.23,0.5,0.0,0.0,0.0
1752859232064,138.0,-70.0,-167.0,-10.0,4.0,-3.0,-0.4,2.7,-0.4,-0.21,-0.79,-0.23,0.54,0.0,0.0,0.0
1752859232213,139.0,-76.0,-159.0,-9.0,0.0,-3.0,0.1,2.0,-4.0,-0.22,-0.76,-0.21,0.57,0.0,0.0,0.0
1752859232252,136.0,-85.0,-175.0,-12.0,4.0,-4.0,-2.3,1.6,-3.8,-0.26,-0.68,-0.21,0.65,0.0,0.0,0.0
1752859232292,128.0,-82.0,-125.0,-12.0,-0.0,-3.0,-2.1,-1.4,-1.8,-0.29,-0.69,-0.24,0.62,0.0,0.0,0.0
1752859232327,120.0,-75.0,-142.0,-11.0,1.0,-8.0,-1.9,-0.8,-5.5,-0.31,-0.71,-0.27,0.56,0.0,0.0,0.0
1752859232366,108.0,-64.0,-151.0,-12.0,1.0,-9.0,-3.4,-1.5,-4.4,-0.32,-0.76,-0.3,0.48,0.0,0.0,0.0
1752859232513,134.0,-38.0,-153.0,-10.0,1.0,-4.0,-2.8,-2.4,1.5,-0.34,-0.8,-0.35,0.35,0.0,0.0,0.0
1752859232565,82.0,-47.0,-151.0,-12.0,-0.0,-3.0,-4.1,-3.0,1.9,-0.34,-0.82,-0.37,0.28,0.0,0.0,0.0
1752859232614,97.0,-61.0,-147.0,-14.0,2.0,-10.0,-5.0,-0.9,-8.3,-0.36,-0.76,-0.35,0.41,0.0,0.0,0.0
1752859232757,109.0,-74.0,-129.0,-8.0,2.0,-5.0,1.3,-1.2,-2.7,-0.37,-0.71,-0.3,0.52,0.0,0.0,0.0
1752859232802,102.0,-60.0,-136.0,-8.0,2.0,-6.0,-0.5,-1.2,-2.6,-0.36,-0.77,-0.24,0.46,0.0,0.0,0.0
1752859232952,140.0,-27.0,-149.0,-4.0,3.0,-4.0,0.0,-2.4,1.9,-0.31,-0.88,-0.32,0.14,0.0,0.0,0.0
1752859232989,139.0,-28.0,-146.0,-6.0,1.0,-10.0,-3.1,-3.6,-3.0,-0.34,-0.87,-0.33,0.14,0.0,0.0,0.0
1752859233041,37.0,-29.0,-140.0,-7.0,5.0,-9.0,-1.8,-0.5,-2.8,-0.38,-0.85,-0.34,0.13,0.0,0.0,0.0
1752859233075,37.0,-29.0,-140.0,-7.0,5.0,-7.0,-1.5,-0.3,0.1,-0.39,-0.84,-0.35,0.13,0.0,0.0,0.0
1752859233437,323.0,1.0,-129.0,-0.0,7.0,-6.0,-0.5,-0.4,0.3,-0.41,-0.86,-0.26,-0.13,0.0,0.0,0.0
1752859233471,320.0,3.0,-134.0,1.0,9.0,-8.0,0.5,1.8,-1.0,-0.38,-0.88,-0.26,-0.14,0.0,0.0,0.0
1752859233725,321.0,5.0,-97.0,5.0,-18.0,-4.0,7.4,-26.7,14.4,-0.32,-0.9,-0.25,-0.13,0.0,0.0,0.0
1752859233757,323.0,4.0,-89.0,1.0,7.0,0.0,0.4,-3.0,0.4,-0.68,-0.68,-0.17,-0.22,0.0,0.0,0.0
1752859260322,56.0,-62.0,-117.0,-8.0,4.0,-2.0,0.3,-0.2,0.5,0.55,0.63,0.46,-0.29,0.0,0.0,0.0
1752859260371,56.0,-63.0,-112.0,-9.0,3.0,-2.0,0.3,-0.7,-0.3,0.57,0.61,0.46,-0.3,0.0,0.0,0.0
1752859260417,56.0,-65.0,-105.0,-9.0,4.0,-1.0,-0.0,-0.3,-0.3,0.59,0.59,0.46,-0.31,0.0,0.0,0.0
1752859260561,59.0,-68.0,-96.0,-8.0,3.0,-0.0,0.7,-0.3,0.2,0.6,0.58,0.45,-0.32,0.0,0.0,0.0
1752859260606,59.0,-69.0,-98.0,-9.0,3.0,-0.0,0.6,-0.2,0.2,0.6,0.55,0.46,-0.34,0.0,0.0,0.0
1752859260645,60.0,-70.0,-102.0,-9.0,3.0,-1.0,0.6,0.1,-0.0,0.59,0.55,0.48,-0.34,0.0,0.0,0.0
1752859260685,59.0,-71.0,-107.0,-9.0,3.0,-1.0,0.5,0.2,-0.3,0.59,0.55,0.49,-0.33,0.0,0.0,0.0
1752859260728,58.0,-71.0,-113.0,-9.0,3.0,-2.0,0.2,0.0,-0.2,0.58,0.55,0.51,-0.32,0.0,0.0,0.0
1752859260775,56.0,-70.0,-118.0,-9.0,2.0,-2.0,0.1,-0.4,-0.4,0.57,0.54,0.53,-0.31,0.0,0.0,0.0
1752859260822,54.0,-69.0,-123.0,-9.0,2.0,-2.0,-1.0,-0.2,0.5,0.57,0.54,0.55,-0.29,0.0,0.0,0.0
1752859260972,44.0,-60.0,-137.0,-8.0,2.0,-3.0,1.6,-0.0,0.3,0.52,0.57,0.6,-0.21,0.0,0.0,0.0
1752859261017,43.0,-57.0,-140.0,-8.0,4.0,-4.0,-0.3,0.1,0.4,0.5,0.59,0.6,-0.2,0.0,0.0,0.0
1752859261064,43.0,-53.0,-144.0,-8.0,3.0,-5.0,0.2,-0.4,-0.5,0.48,0.61,0.6,-0.19,0.0,0.0,0.0
1752859261106,41.0,-50.0,-145.0,-7.0,4.0,-5.0,0.4,-0.2,0.3,0.46,0.63,0.6,-0.17,0.0,0.0,0.0
1752859261144,38.0,-48.0,-145.0,-7.0,3.0,-5.0,0.3,-0.3,0.3,0.45,0.64,0.61,-0.16,0.0,0.0,0.0
1752859261192,34.0,-45.0,-146.0,-7.0,3.0,-5.0,0.3,-0.5,1.0,0.44,0.65,0.61,-0.14,0.0,0.0,0.0
1752859261236,30.0,-42.0,-145.0,-6.0,4.0,-6.0,0.3,-0.5,-0.2,0.43,0.66,0.61,-0.12,0.0,0.0,0.0
1752859261278,28.0,-40.0,-146.0,-6.0,4.0,-6.0,0.2,-0.3,0.1,0.42,0.67,0.61,-0.11,0.0,0.0,0.0
1752859261525,27.0,-39.0,-144.0,-6.0,4.0,-6.0,-0.1,0.0,-0.1,0.41,0.67,0.61,-0.1,0.0,0.0,0.0
1752859261777,51.0,-53.0,-146.0,-8.0,3.0,-5.0,0.4,-0.2,-0.0,0.42,0.68,0.59,-0.11,0.0,0.0,0.0
1752859261819,53.0,-56.0,-146.0,-8.0,3.0,-4.0,0.3,0.0,0.2,0.46,0.63,0.58,-0.23,0.0,0.0,0.0
1752859261867,55.0,-58.0,-146.0,-8.0,3.0,-4.0,0.5,0.0,0.3,0.47,0.62,0.58,-0.24,0.0,0.0,0.0
1752859261907,56.0,-60.0,-146.0,-8.0,2.0,-4.0,0.2,0.1,0.6,0.48,0.6,0.59,-0.25,0.0,0.0,0.0
1752859261947,55.0,-62.0,-145.0,-9.0,2.0,-4.0,0.1,-0.2,0.1,0.49,0.59,0.59,-0.26,0.0,0.0,0.0
1752859261987,55.0,-63.0,-145.0,-9.0,2.0,-3.0,0.1,-0.6,0.2,0.5,0.57,0.6,-0.26,0.0,0.0,0.0
1752859262029,55.0,-65.0,-145.0,-9.0,2.0,-3.0,0.1,-0.8,0.9,0.5,0.56,0.6,-0.26,0.0,0.0,0.0
1752859262075,56.0,-66.0,-145.0,-9.0,1.0,-2.0,0.0,-0.8,0.6,0.51,0.55,0.61,-0.27,0.0,0.0,0.0
1752859262125,56.0,-67.0,-146.0,-9.0,1.0,-3.0,0.0,-0.2,0.5,0.51,0.54,0.61,-0.27,0.0,0.0,0.0
1752859262203,57.0,-69.0,-146.0,-9.0,-1.0,-3.0,-0.9,1.2,0.1,0.52,0.53,0.61,-0.28,0.0,0.0,0.0
1752859262325,59.0,-70.0,-147.0,-9.0,2.0,-3.0,0.1,0.5,-0.0,0.52,0.53,0.61,-0.29,0.0,0.0,0.0
1752859262373,64.0,-74.0,-146.0,-9.0,1.0,-2.0,0.7,-0.3,-0.2,0.53,0.52,0.59,-0.33,0.0,0.0,0.0
1752859262566,51.0,-78.0,-147.0,-9.0,1.0,-1.0,1.0,-0.4,0.5,0.55,0.47,0.61,-0.32,0.0,0.0,0.0
1752859262717,52.0,-78.0,-152.0,-9.0,-2.0,-2.0,1.0,-1.5,-0.1,0.58,0.4,0.66,-0.28,0.0,0.0,0.0
1752859262770,52.0,-78.0,172.0,-10.0,0.0,-2.0,-0.5,1.4,0.2,0.57,0.32,0.71,-0.28,0.0,0.0,0.0
1752859262812,59.0,-76.0,159.0,-10.0,-1.0,-2.0,-0.6,0.3,0.4,0.55,0.33,0.71,-0.31,0.0,0.0,0.0
1752859262946,57.0,-74.0,155.0,-8.0,-3.0,-2.0,0.7,-1.4,2.1,0.54,0.3,0.73,-0.3,0.0,0.0,0.0
1752859262996,64.0,-62.0,150.0,-8.0,-2.0,-4.0,1.0,1.0,-0.3,0.47,0.24,0.8,-0.28,0.0,0.0,0.0
1752859263039,73.0,-58.0,145.0,-8.0,-2.0,-4.0,0.1,0.9,0.8,0.43,0.24,0.81,-0.31,0.0,0.0,0.0
1752859263186,78.0,-54.0,144.0,-8.0,-6.0,-6.0,-2.4,-1.1,0.2,0.41,0.23,0.82,-0.32,0.0,0.0,0.0
1752859263285,116.0,-36.0,130.0,-10.0,-7.0,-4.0,0.0,0.0,0.0,0.27,0.18,0.85,-0.41,0.0,0.0,0.0
1752859263632,93.0,-45.0,115.0,-3.0,-2.0,-8.0,5.4,3.1,-5.4,0.4,0.07,0.8,-0.44,0.0,0.0,0.0
1752859263779,41.0,-74.0,146.0,-3.0,-3.0,-4.0,4.5,-4.9,-2.3,0.5,0.09,0.79,-0.33,0.0,0.0,0.0
1752859263823,34.0,-75.0,164.0,-2.0,-3.0,-10.0,7.4,-2.9,-7.2,0.59,0.18,0.77,-0.18,0.0,0.0,0.0
1752859263864,26.0,-74.0,-178.0,-6.0,-2.0,-5.0,3.2,-2.3,-1.9,0.59,0.19,0.77,-0.14,0.0,0.0,0.0
1752859263902,22.0,-72.0,-173.0,-9.0,-3.0,-5.0,0.3,-3.5,-2.0,0.58,0.18,0.78,-0.12,0.0,0.0,0.0
1752859263941,24.0,-70.0,-173.0,-11.0,-4.0,-4.0,-1.8,-3.9,-0.6,0.57,0.2,0.79,-0.12,0.0,0.0,0.0
1752859263982,29.0,-67.0,-176.0,-17.0,-1.0,-5.0,-7.8,-1.1,-1.0,0.54,0.22,0.8,-0.13,0.0,0.0,0.0
1752859264876,359.0,-58.0,-173.0,-7.0,4.0,-1.0,2.0,1.1,0.0,0.49,0.06,0.87,0.0,0.0,0.0,0.0
1752859264920,350.0,-71.0,-109.0,-9.0,5.0,-3.0,-2.5,-4.2,1.0,0.67,0.16,0.73,0.06,0.0,0.0,0.0
1752859264964,351.0,-71.0,-105.0,-13.0,10.0,-4.0,-3.6,-1.1,-0.1,0.68,0.18,0.71,0.05,0.0,0.0,0.0
1752859265003,353.0,-70.0,-89.0,-11.0,4.0,-2.0,-1.5,0.9,-2.0,0.7,0.19,0.68,0.04,0.0,0.0,0.0
1752859265143,355.0,-69.0,-68.0,-10.0,1.0,4.0,-0.7,-2.2,3.0,0.72,0.21,0.66,0.03,0.0,0.0,0.0
1752859265184,356.0,-70.0,-60.0,-7.0,3.0,1.0,2.3,-0.1,-0.5,0.76,0.18,0.62,0.02,0.0,0.0,0.0
1752859265431,354.0,-61.0,-30.0,-8.0,1.0,6.0,0.2,-1.1,1.5,0.78,0.17,0.61,0.03,0.0,0.0,0.0
1752859265475,355.0,-60.0,-30.0,-8.0,3.0,6.0,0.0,0.4,1.2,0.85,0.13,0.51,0.04,0.0,0.0,0.0
1752859265520,355.0,-58.0,-32.0,-8.0,2.0,3.0,0.3,0.1,-1.6,0.85,0.14,0.51,0.03,0.0,0.0,0.0
1752859265565,356.0,-58.0,-32.0,-7.0,3.0,3.0,1.7,0.3,-1.8,0.85,0.15,0.5,0.03,0.0,0.0,0.0
1752859265602,355.0,-58.0,-30.0,-7.0,2.0,3.0,1.4,-0.8,-0.4,0.85,0.14,0.51,0.04,0.0,0.0,0.0
1752859265644,355.0,-60.0,-29.0,-8.0,2.0,5.0,0.8,-0.1,0.3,0.85,0.12,0.51,0.04,0.0,0.0,0.0
1752859265685,355.0,-60.0,-28.0,-8.0,1.0,6.0,0.6,-1.1,1.3,0.85,0.12,0.52,0.04,0.0,0.0,0.0
1752859266033,351.0,-55.0,-13.0,-10.0,-0.0,7.0,1.2,-0.1,-1.8,0.84,0.11,0.52,0.04,0.0,0.0,0.0
1752859266076,353.0,-48.0,-6.0,-7.0,1.0,7.0,0.1,-0.0,0.5,0.91,0.01,0.4,0.05,0.0,0.0,0.0
1752859266222,353.0,-50.0,-11.0,-7.0,2.0,7.0,-0.0,3.0,3.9,0.91,0.02,0.42,0.05,0.0,0.0,0.0
1752859266269,353.0,-49.0,-12.0,-6.0,1.0,6.0,1.1,-0.8,-1.4,0.9,0.05,0.42,0.05,0.0,0.0,0.0
1752859266347,355.0,-48.0,-4.0,-7.0,-1.0,6.0,0.0,-1.5,-0.0,0.91,0.02,0.41,0.04,0.0,0.0,0.0
1752859266388,357.0,-48.0,3.0,-7.0,-1.0,8.0,-0.2,-0.5,1.0,0.91,-0.03,0.41,0.04,0.0,0.0,0.0
1752859266478,356.0,-46.0,22.0,-7.0,-5.0,7.0,0.2,-2.3,0.5,0.91,-0.15,0.39,0.03,0.0,0.0,0.0
1752859266522,355.0,-44.0,35.0,-7.0,-7.0,6.0,2.4,0.6,-2.1,0.89,-0.23,0.38,0.04,0.0,0.0,0.0
1752859266667,354.0,-44.0,36.0,-6.0,-3.0,5.0,0.1,1.5,-0.2,0.89,-0.26,0.38,0.04,0.0,0.0,0.0
1752859266704,354.0,-44.0,36.0,-7.0,-5.0,6.0,0.0,-2.2,0.2,0.89,-0.26,0.38,0.05,0.0,0.0,0.0
1752859266746,354.0,-45.0,36.0,-8.0,-5.0,7.0,-1.0,-0.9,1.3,0.89,-0.25,0.38,0.05,0.0,0.0,0.0
1752859266788,354.0,-45.0,34.0,-7.0,-2.0,5.0,0.2,1.8,-0.3,0.89,-0.25,0.38,0.04,0.0,0.0,0.0
1752859267136,354.0,-49.0,-22.0,-7.0,2.0,4.0,-2.2,0.4,0.1,0.89,-0.23,0.39,0.04,0.0,0.0,0.0
1752859267280,359.0,-42.0,-71.0,-6.0,6.0,2.0,0.4,-1.3,0.8,0.79,0.44,0.43,0.01,0.0,0.0,0.0
1752859267321,1.0,-41.0,-75.0,-7.0,6.0,3.0,-0.1,-0.7,0.0,0.77,0.48,0.42,-0.01,0.0,0.0,0.0
1752859267458,2.0,-45.0,-63.0,-7.0,7.0,3.0,0.0,0.3,0.1,0.79,0.45,0.42,-0.01,0.0,0.0,0.0
1752859267498,2.0,-44.0,-63.0,-7.0,7.0,4.0,-0.4,0.8,0.6,0.81,0.4,0.42,-0.01,0.0,0.0,0.0
1752859267539,2.0,-44.0,-66.0,-6.0,6.0,3.0,0.5,-0.4,0.1,0.81,0.42,0.42,-0.02,0.0,0.0,0.0
1752859267580,2.0,-43.0,-70.0,-6.0,6.0,3.0,0.6,-0.6,0.4,0.79,0.44,0.42,-0.02,0.0,0.0,0.0
1752859267625,3.0,-41.0,-76.0,-6.0,8.0,2.0,0.5,1.3,-0.2,0.78,0.48,0.41,-0.02,0.0,0.0,0.0
1752859267669,3.0,-39.0,-81.0,-3.0,9.0,-2.0,-2.1,0.3,2.8,0.75,0.52,0.41,-0.02,0.0,0.0,0.0
1752859267706,3.0,-37.0,-86.0,-5.0,7.0,-1.0,1.7,-0.9,-1.5,0.73,0.56,0.4,-0.02,0.0,0.0,0.0
1752859267750,4.0,-35.0,-92.0,-6.0,7.0,0.0,-0.2,-1.2,0.7,0.7,0.59,0.39,-0.02,0.0,0.0,0.0
1752859267790,7.0,-33.0,-96.0,-5.0,8.0,-0.0,0.1,-0.2,0.7,0.68,0.62,0.38,-0.02,0.0,0.0,0.0
1752859268137,9.0,-34.0,-92.0,-6.0,9.0,-0.0,-0.5,0.1,-0.7,0.66,0.65,0.36,-0.04,0.0,0.0,0.0
1752859268194,10.0,-29.0,-105.0,-4.0,7.0,-3.0,0.3,-0.8,-0.2,0.62,0.71,0.33,-0.06,0.0,0.0,0.0
1752859268426,22.0,-21.0,-131.0,-5.0,7.0,-6.0,-1.3,0.2,0.1,0.57,0.76,0.31,-0.06,0.0,0.0,0.0
1752859268470,22.0,-21.0,-129.0,-5.0,8.0,-6.0,-1.0,-0.5,-0.9,0.45,0.86,0.24,-0.09,0.0,0.0,0.0
1752859268550,29.0,-20.0,-136.0,-4.0,2.0,-3.0,-0.2,-4.1,4.2,0.4,0.88,0.22,-0.1,0.0,0.0,0.0
1752859268594,158.0,-18.0,-148.0,-2.0,4.0,-10.0,0.9,-0.7,-1.3,0.32,0.92,0.19,-0.11,0.0,0.0,0.0
1752859268790,157.0,-19.0,-151.0,-3.0,5.0,-8.0,-0.3,0.5,-0.1,0.27,0.94,0.19,-0.12,0.0,0.0,0.0
1752859269031,160.0,-17.0,-151.0,-3.0,4.0,-8.0,0.3,-0.1,0.0,0.28,0.94,0.18,-0.11,0.0,0.0,0.0
1752859269074,158.0,-18.0,-152.0,-4.0,4.0,-8.0,-0.7,-0.3,0.9,0.26,0.94,0.18,-0.12,0.0,0.0,0.0
1752859269675,46.0,-24.0,-129.0,-4.0,7.0,-6.0,0.4,-0.7,0.5,0.43,0.88,0.1,-0.18,0.0,0.0,0.0
1752859269722,44.0,-24.0,-126.0,-4.0,6.0,-5.0,0.2,-1.1,0.6,0.44,0.87,0.1,-0.18,0.0,0.0,0.0
1752859269755,43.0,-24.0,-124.0,-4.0,7.0,-5.0,0.4,-0.3,-0.4,0.46,0.86,0.1,-0.18,0.0,0.0,0.0
1752859269808,41.0,-25.0,-119.0,-3.0,7.0,-4.0,0.6,-0.6,0.8,0.49,0.85,0.11,-0.18,0.0,0.0,0.0
1752859269956,38.0,-26.0,-111.0,-4.0,7.0,-1.0,0.4,-0.9,0.9,0.54,0.81,0.13,-0.19,0.0,0.0,0.0
1752859269990,38.0,-29.0,-104.0,-4.0,8.0,-2.0,0.3,-0.1,0.1,0.59,0.76,0.15,-0.21,0.0,0.0,0.0
1752859270135,40.0,-27.0,-110.0,-4.0,8.0,-2.0,0.2,-0.6,0.7,0.59,0.77,0.14,-0.2,0.0,0.0,0.0
1752859270177,41.0,-27.0,-113.0,-3.0,7.0,-2.0,0.9,-1.6,0.1,0.53,0.81,0.12,-0.2,0.0,0.0,0.0
1752859270228,42.0,-26.0,-117.0,-4.0,7.0,-4.0,0.1,-0.8,1.9,0.51,0.83,0.11,-0.2,0.0,0.0,0.0
1752859270358,43.0,-27.0,-116.0,-5.0,10.0,2.0,-0.8,2.5,5.9,0.49,0.84,0.1,-0.2,0.0,0.0,0.0
1752859270404,44.0,-27.0,-116.0,-5.0,9.0,-3.0,-0.5,0.7,0.8,0.51,0.83,0.11,-0.2,0.0,0.0,0.0
1752859270446,45.0,-27.0,-117.0,-5.0,7.0,-3.0,0.2,-0.8,0.4,0.5,0.83,0.1,-0.21,0.0,0.0,0.0
1752859270490,47.0,-26.0,-119.0,-3.0,6.0,-4.0,1.0,-1.4,-0.1,0.49,0.84,0.09,-0.21,0.0,0.0,0.0
1752859270738,53.0,-27.0,-120.0,-4.0,7.0,-4.0,0.6,-0.2,0.3,0.47,0.85,0.08,-0.22,0.0,0.0,0.0
1752859270778,52.0,-27.0,-119.0,-4.0,7.0,-4.0,0.3,-0.4,0.3,0.48,0.84,0.06,-0.24,0.0,0.0,0.0
1752859270821,52.0,-28.0,-116.0,-4.0,7.0,-3.0,0.6,-0.9,0.7,0.49,0.83,0.06,-0.24,0.0,0.0,0.0
1752859270969,52.0,-29.0,-111.0,-6.0,9.0,-3.0,-1.0,0.6,-0.5,0.5,0.83,0.06,-0.25,0.0,0.0,0.0
1752859271006,53.0,-30.0,-111.0,-5.0,8.0,-3.0,-0.4,-0.3,0.3,0.53,0.8,0.07,-0.26,0.0,0.0,0.0
1752859271054,54.0,-29.0,-111.0,-5.0,8.0,-3.0,0.1,-0.4,0.0,0.53,0.81,0.07,-0.26,0.0,0.0,0.0
1752859271195,55.0,-29.0,-111.0,-4.0,7.0,-3.0,0.4,-0.3,0.2,0.52,0.81,0.06,-0.26,0.0,0.0,0.0
1752859271243,56.0,-29.0,-111.0,-4.0,8.0,-3.0,0.3,-0.5,0.4,0.52,0.81,0.04,-0.27,0.0,0.0,0.0
1752859271288,55.0,-30.0,-109.0,-5.0,8.0,-2.0,-0.0,0.0,0.5,0.53,0.8,0.04,-0.28,0.0,0.0,0.0
1752859271333,55.0,-30.0,-107.0,-5.0,8.0,-2.0,-0.0,-0.3,0.6,0.54,0.79,0.05,-0.28,0.0,0.0,0.0
1752859271472,56.0,-30.0,-106.0,-5.0,8.0,-2.0,-0.1,-0.3,-0.2,0.54,0.79,0.04,-0.29,0.0,0.0,0.0
1752859271510,59.0,-32.0,-102.0,-5.0,8.0,-1.0,0.3,-0.3,0.2,0.56,0.77,0.04,-0.31,0.0,0.0,0.0
1752859271548,59.0,-32.0,-100.0,-7.0,7.0,0.0,-1.9,-0.8,1.8,0.57,0.76,0.04,-0.32,0.0,0.0,0.0
1752859271808,61.0,-31.0,-106.0,-4.0,6.0,-1.0,0.5,-2.3,1.5,0.57,0.75,0.05,-0.33,0.0,0.0,0.0
1752859271844,62.0,-30.0,-107.0,-5.0,8.0,-2.0,0.3,0.1,0.0,0.52,0.79,0.01,-0.31,0.0,0.0,0.0
1752859271894,62.0,-31.0,-107.0,-6.0,8.0,-2.0,-0.1,0.3,0.4,0.52,0.79,0.01,-0.32,0.0,0.0,0.0
1752859271935,62.0,-31.0,-107.0,-4.0,8.0,-2.0,0.6,-0.7,0.4,0.52,0.79,0.01,-0.32,0.0,0.0,0.0
1752859271976,63.0,-31.0,-108.0,-4.0,7.0,-2.0,0.7,-0.9,0.6,0.52,0.79,0.01,-0.32,0.0,0.0,0.0
1752859272018,63.0,-31.0,-108.0,-6.0,7.0,-3.0,-0.8,-0.4,-0.9,0.52,0.8,0.0,-0.32,0.0,0.0,0.0
1752859272061,64.0,-31.0,-108.0,-5.0,8.0,-2.0,0.2,0.1,0.1,0.52,0.79,0.0,-0.32,0.0,0.0,0.0
1752859272102,64.0,-31.0,-108.0,-5.0,8.0,-2.0,0.1,-0.1,0.6,0.52,0.79,0.0,-0.32,0.0,0.0,0.0
1752859272249,64.0,-31.0,-108.0,-5.0,8.0,-2.0,0.4,-0.5,0.4,0.52,0.79,0.0,-0.32,0.0,0.0,0.0
1752859272294,65.0,-31.0,-108.0,-5.0,7.0,-2.0,0.4,-0.5,0.4,0.51,0.79,-0.0,-0.32,0.0,0.0,0.0
1752859272337,65.0,-31.0,-108.0,-5.0,8.0,-2.0,0.6,-0.4,0.2,0.51,0.79,-0.0,-0.33,0.0,0.0,0.0
1752859272485,65.0,-32.0,-107.0,-5.0,7.0,-2.0,-1.0,-0.3,1.3,0.51,0.79,-0.0,-0.33,0.0,0.0,0.0
1752859272530,66.0,-32.0,-107.0,-5.0,8.0,-1.0,-0.5,0.7,-0.5,0.52,0.79,0.0,-0.33,0.0,0.0,0.0
1752859272569,66.0,-32.0,-106.0,-6.0,9.0,-2.0,-0.7,0.8,0.1,0.52,0.79,0.01,-0.34,0.0,0.0,0.0
1752859272622,66.0,-32.0,-106.0,-5.0,8.0,-2.0,-0.2,0.1,0.3,0.52,0.79,0.0,-0.34,0.0,0.0,0.0
1752859272658,66.0,-32.0,-106.0,-5.0,7.0,-2.0,0.4,-0.9,-0.2,0.52,0.79,0.0,-0.34,0.0,0.0,0.0
1752859272711,66.0,-32.0,-106.0,-5.0,7.0,-2.0,0.7,-1.0,0.1,0.52,0.79,-0.0,-0.34,0.0,0.0,0.0
1752859272747,67.0,-32.0,-106.0,-5.0,8.0,-2.0,0.2,0.0,0.3,0.52,0.79,-0.0,-0.34,0.0,0.0,0.0
1752859272887,67.0,-32.0,-106.0,-5.0,7.0,-2.0,0.6,-0.8,0.1,0.52,0.79,-0.01,-0.34,0.0,0.0,0.0
1752859272939,67.0,-32.0,-106.0,-5.0,7.0,-2.0,0.4,-0.7,0.1,0.52,0.78,-0.01,-0.34,0.0,0.0,0.0
1752859273091,67.0,-32.0,-105.0,-5.0,8.0,-2.0,-0.1,-0.1,-0.1,0.52,0.78,-0.01,-0.35,0.0,0.0,0.0
1752859273141,68.0,-32.0,-105.0,-6.0,8.0,-2.0,-0.6,-0.2,0.2,0.52,0.78,-0.01,-0.35,0.0,0.0,0.0
1752859273174,68.0,-32.0,-105.0,-5.0,8.0,-3.0,0.0,-0.4,-0.8,0.52,0.78,-0.01,-0.35,0.0,0.0,0.0
1752859273210,68.0,-32.0,-106.0,-5.0,7.0,-2.0,0.4,-0.6,-0.2,0.52,0.78,-0.01,-0.35,0.0,0.0,0.0
1752859273818,68.0,-32.0,-107.0,-5.0,8.0,-2.0,0.2,-0.4,0.4,0.51,0.79,-0.01,-0.34,0.0,0.0,0.0
1752859273853,68.0,-32.0,-107.0,-5.0,8.0,-2.0,0.2,-0.3,0.3,0.51,0.79,-0.01,-0.34,0.0,0.0,0.0
1752859273904,68.0,-32.0,-107.0,-5.0,8.0,-2.0,0.1,-0.2,0.0,0.51,0.79,-0.02,-0.34,0.0,0.0,0.0
1752859274155,68.0,-31.0,-108.0,-5.0,8.0,-2.0,0.0,-4.1,4.3,0.51,0.79,-0.02,-0.34,0.0,0.0,0.0
1752859274310,68.0,-31.0,-107.0,-5.0,8.0,-2.0,0.3,-0.3,0.3,0.51,0.79,-0.02,-0.34,0.0,0.0,0.0
1752859274346,68.0,-31.0,-107.0,-5.0,8.0,-2.0,0.3,-0.4,0.3,0.51,0.79,-0.02,-0.34,0.0,0.0,0.0
1752859274375,68.0,-31.0,-107.0,-5.0,8.0,-2.0,0.0,0.0,0.0,0.51,0.79,-0.02,-0.34,0.0,0.0,0.0
1752859274415,68.0,-31.0,-107.0,-5.0,8.0,-2.0,0.2,-0.2,0.2,0.51,0.79,-0.02,-0.34,0.0,0.0,0.0
1752859274461,68.0,-31.0,-107.0,-5.0,8.0,-2.0,0.0,0.0,0.0,0.51,0.79,-0.02,-0.34,0.0,0.0,0.0
1752859274505,68.0,-31.0,-107.0,-5.0,8.0,-2.0,0.3,-0.4,0.2,0.51,0.79,-0.02,-0.34,0.0,0.0,0.0
1752859274654,68.0,-31.0,-107.0,-5.0,8.0,-2.0,0.3,-0.2,0.1,0.51,0.79,-0.02,-0.34,0.0,0.0,0.0
1752859274696,68.0,-31.0,-107.0,-5.0,8.0,-2.0,0.2,-0.1,0.0,0.51,0.79,-0.02,-0.34,0.0,0.0,0.0
1752859274842,68.0,-31.0,-107.0,-5.0,7.0,-3.0,-0.1,-0.4,0.0,0.51,0.79,-0.02,-0.34,0.0,0.0,0.0
1752859274901,67.0,-32.0,-106.0,-5.0,8.0,-1.0,-0.1,-0.6,-0.3,0.52,0.78,-0.01,-0.34,0.0,0.0,0.0
1752859274936,66.0,-32.0,-104.0,-5.0,8.0,-3.0,0.3,-0.5,-0.5,0.52,0.78,-0.0,-0.34,0.0,0.0,0.0
1752859275075,70.0,-31.0,-122.0,-5.0,7.0,-5.0,-0.0,0.1,0.0,0.52,0.78,0.0,-0.34,0.0,0.0,0.0
1752859275109,73.0,-31.0,-128.0,-5.0,6.0,-5.0,0.3,-0.4,0.4,0.4,0.87,0.01,-0.29,0.0,0.0,0.0
1752859275161,75.0,-31.0,-133.0,-5.0,6.0,-5.0,-0.3,0.0,0.9,0.37,0.89,0.02,-0.28,0.0,0.0,0.0
1752859275296,88.0,-34.0,-142.0,-6.0,5.0,-6.0,-0.1,0.3,0.6,0.3,0.91,0.06,-0.29,0.0,0.0,0.0
1752859275346,93.0,-37.0,-141.0,-7.0,6.0,-6.0,-0.8,1.0,0.4,0.3,0.9,0.06,-0.31,0.0,0.0,0.0
1752859275386,95.0,-40.0,-139.0,-8.0,6.0,-4.0,-0.8,-0.1,-0.1,0.31,0.89,0.07,-0.34,0.0,0.0,0.0
1752859275429,98.0,-43.0,-136.0,-8.0,5.0,-4.0,-0.8,0.5,0.7,0.32,0.87,0.07,-0.36,0.0,0.0,0.0
1752859275569,102.0,-51.0,-119.0,-8.0,5.0,-5.0,0.1,0.1,-1.6,0.33,0.86,0.07,-0.38,0.0,0.0,0.0
1752859275612,102.0,-52.0,-116.0,-7.0,6.0,-4.0,0.6,0.4,-1.4,0.38,0.8,0.05,-0.47,0.0,0.0,0.0
1752859275858,108.0,-46.0,-142.0,-7.0,4.0,-4.0,-0.2,0.0,1.5,0.38,0.8,0.05,-0.47,0.0,0.0,0.0
1752859275908,118.0,-44.0,-151.0,-6.0,2.0,-5.0,0.4,-0.9,1.5,0.23,0.9,0.07,-0.37,0.0,0.0,0.0
1752859276044,131.0,-44.0,-160.0,-5.0,2.0,-5.0,0.5,0.4,-1.3,0.18,0.91,0.08,-0.36,0.0,0.0,0.0
1752859276091,164.0,-52.0,-177.0,-8.0,1.0,-7.0,-0.2,0.3,-0.5,0.06,0.9,0.09,-0.43,0.0,0.0,0.0
1752859276127,169.0,-55.0,179.0,-9.0,-1.0,-6.0,-1.0,-0.9,-0.5,0.05,0.88,0.09,-0.46,0.0,0.0,0.0
1752859276278,178.0,-64.0,171.0,-7.0,0.0,-5.0,1.9,0.8,-0.4,0.04,0.87,0.1,-0.48,0.0,0.0,0.0
1752859276307,178.0,-65.0,171.0,-12.0,-4.0,-7.0,-3.3,-3.0,-2.6,0.01,0.84,0.08,-0.54,0.0,0.0,0.0
1752859276467,202.0,-65.0,148.0,-7.0,-0.0,-0.0,0.9,1.5,2.6,0.01,0.84,0.07,-0.54,0.0,0.0,0.0
1752859276501,205.0,-65.0,141.0,-8.0,0.0,-3.0,0.4,3.0,0.1,-0.13,0.82,0.06,-0.56,0.0,0.0,0.0
1752859276755,214.0,-64.0,146.0,-7.0,-2.0,-3.0,0.6,0.1,-1.0,-0.14,0.81,0.07,-0.57,0.0,0.0,0.0
1752859276788,216.0,-63.0,146.0,-8.0,-3.0,-5.0,0.4,1.0,-0.5,-0.17,0.83,-0.03,-0.53,0.0,0.0,0.0
1752859276836,219.0,-62.0,144.0,-10.0,1.0,-3.0,-0.3,1.5,1.0,-0.19,0.83,-0.03,-0.53,0.0,0.0,0.0
1752859276967,242.0,-62.0,124.0,-8.0,-4.0,-3.0,0.8,0.0,-0.0,-0.24,0.81,-0.07,-0.53,0.0,0.0,0.0
1752859277009,244.0,-61.0,122.0,-8.0,-3.0,-3.0,0.7,1.5,-0.8,-0.32,0.79,-0.09,-0.52,0.0,0.0,0.0
1752859277067,247.0,-60.0,119.0,-9.0,-3.0,-2.0,-1.4,1.7,1.1,-0.33,0.79,-0.09,-0.51,0.0,0.0,0.0
1752859277108,248.0,-59.0,116.0,-9.0,-4.0,-3.0,-0.7,0.4,-0.5,-0.35,0.78,-0.08,-0.51,0.0,0.0,0.0
1752859277151,251.0,-60.0,111.0,-8.0,-5.0,-2.0,0.1,0.2,0.3,-0.37,0.77,-0.09,-0.52,0.0,0.0,0.0
1752859277193,252.0,-60.0,107.0,-8.0,-5.0,-1.0,0.9,-0.8,-0.9,-0.38,0.75,-0.1,-0.53,0.0,0.0,0.0
1752859277326,252.0,-62.0,100.0,-8.0,-5.0,-1.0,0.1,-0.4,-0.3,-0.39,0.74,-0.1,-0.54,0.0,0.0,0.0
1752859277371,251.0,-61.0,101.0,-9.0,-5.0,-1.0,-0.3,0.1,0.0,-0.39,0.73,-0.1,-0.55,0.0,0.0,0.0
1752859277419,251.0,-60.0,102.0,-9.0,-4.0,-1.0,-0.2,0.6,-0.3,-0.39,0.74,-0.09,-0.55,0.0,0.0,0.0
1752859277557,251.0,-58.0,104.0,-8.0,-5.0,-2.0,0.1,0.2,-0.4,-0.38,0.75,-0.07,-0.54,0.0,0.0,0.0
1752859277808,254.0,-54.0,106.0,-8.0,-5.0,-1.0,-0.1,0.2,0.2,-0.4,0.75,-0.04,-0.53,0.0,0.0,0.0
1752859277852,253.0,-54.0,105.0,-8.0,-5.0,-2.0,-0.2,0.7,-0.2,-0.39,0.76,-0.01,-0.52,0.0,0.0,0.0
1752859277897,252.0,-53.0,103.0,-8.0,-5.0,-1.0,-0.5,0.5,-0.8,-0.38,0.75,-0.0,-0.53,0.0,0.0,0.0
1752859277939,252.0,-54.0,100.0,-9.0,-7.0,-2.0,-0.7,-0.7,-0.6,-0.39,0.74,-0.0,-0.54,0.0,0.0,0.0
1752859278770,249.0,-56.0,113.0,-5.0,-7.0,-4.0,0.0,0.0,0.0,-0.38,0.76,-0.01,-0.52,0.0,0.0,0.0
1752859278811,246.0,-57.0,118.0,-9.0,-2.0,-1.0,0.0,0.0,0.0,-0.34,0.79,-0.05,-0.51,0.0,0.0,0.0
1752859279061,221.0,-69.0,142.0,-9.0,-3.0,-3.0,0.1,-0.6,0.1,-0.31,0.8,-0.04,-0.51,0.0,0.0,0.0
1752859279117,218.0,-72.0,145.0,-9.0,0.0,-3.0,0.0,2.3,-0.5,-0.2,0.79,-0.11,-0.58,0.0,0.0,0.0
1752859279256,215.0,-74.0,150.0,-10.0,-0.0,-2.0,-0.3,-0.0,-0.3,-0.19,0.78,-0.13,-0.59,0.0,0.0,0.0
1752859279401,211.0,-76.0,-172.0,-9.0,0.0,-3.0,-0.1,-0.2,-0.2,-0.17,0.75,-0.2,-0.6,0.0,0.0,0.0
1752859279442,211.0,-74.0,-170.0,-10.0,0.0,-3.0,-0.1,0.1,-0.8,-0.16,0.76,-0.25,-0.58,0.0,0.0,0.0
1752859279585,215.0,-70.0,-171.0,-11.0,1.0,-5.0,-1.4,0.2,-1.2,-0.16,0.76,-0.26,-0.57,0.0,0.0,0.0
1752859279626,217.0,-69.0,-169.0,-9.0,0.0,-5.0,0.1,-0.6,-1.6,-0.18,0.76,-0.31,-0.54,0.0,0.0,0.0
1752859279668,218.0,-69.0,-167.0,-8.0,3.0,-5.0,1.5,2.1,-2.0,-0.19,0.75,-0.33,-0.54,0.0,0.0,0.0
1752859279814,222.0,-69.0,-159.0,-8.0,0.0,-4.0,1.0,-1.5,-1.2,-0.2,0.74,-0.35,-0.54,0.0,0.0,0.0
1752859279952,223.0,-68.0,-158.0,-7.0,1.0,-4.0,2.0,0.2,-0.3,-0.21,0.71,-0.41,-0.53,0.0,0.0,0.0
1752859279999,224.0,-67.0,-161.0,-7.0,2.0,-4.0,1.3,1.2,1.1,-0.21,0.72,-0.41,-0.52,0.0,0.0,0.0
1752859280035,224.0,-67.0,-161.0,-8.0,3.0,-2.0,0.9,1.6,1.8,-0.21,0.72,-0.41,-0.52,0.0,0.0,0.0
1752859295695,6.0,-15.0,16.0,-3.0,-3.0,9.0,0.0,-0.1,0.0,0.98,-0.12,0.14,-0.05,0.0,0.0,0.0
1752859295740,6.0,-15.0,16.0,-3.0,-3.0,9.0,0.0,-0.1,-0.0,0.98,-0.13,0.14,-0.05,0.0,0.0,0.0
1752859295786,6.0,-15.0,16.0,-3.0,-3.0,9.0,0.0,-0.1,0.0,0.98,-0.13,0.14,-0.05,0.0,0.0,0.0
1752859295930,6.0,-15.0,16.0,-3.0,-3.0,9.0,0.0,-0.1,0.0,0.98,-0.13,0.14,-0.05,0.0,0.0,0.0
1752859295975,6.0,-15.0,16.0,-3.0,-3.0,9.0,0.0,-0.0,-0.0,0.98,-0.13,0.14,-0.06,0.0,0.0,0.0
1752859296019,7.0,-15.0,16.0,-3.0,-3.0,9.0,0.0,-0.0,-0.0,0.98,-0.13,0.14,-0.06,0.0,0.0,0.0
1752859296060,7.0,-15.0,16.0,-3.0,-3.0,9.0,-0.0,0.0,0.0,0.98,-0.13,0.14,-0.06,0.0,0.0,0.0
1752859296100,6.0,-15.0,16.0,-3.0,-3.0,9.0,0.0,-0.1,0.0,0.98,-0.13,0.14,-0.06,0.0,0.0,0.0
1752859296149,6.0,-15.0,16.0,-3.0,-3.0,9.0,-0.0,-0.1,0.0,0.98,-0.13,0.14,-0.06,0.0,0.0,0.0
1752859296190,6.0,-15.0,16.0,-3.0,-3.0,9.0,-0.0,-0.1,0.0,0.98,-0.13,0.14,-0.05,0.0,0.0,0.0
1752859296336,7.0,-15.0,16.0,-3.0,-3.0,9.0,0.0,0.0,0.0,0.98,-0.13,0.14,-0.05,0.0,0.0,0.0
1752859296387,7.0,-15.0,17.0,-3.0,-3.0,9.0,0.0,0.0,-0.1,0.98,-0.13,0.14,-0.06,0.0,0.0,0.0
1752859296431,7.0,-15.0,17.0,-3.0,-3.0,9.0,0.0,0.0,-0.0,0.98,-0.13,0.14,-0.06,0.0,0.0,0.0
1752859296481,7.0,-15.0,17.0,-3.0,-3.0,9.0,-0.0,-0.1,0.0,0.98,-0.14,0.14,-0.06,0.0,0.0,0.0
1752859296628,7.0,-15.0,17.0,-3.0,-3.0,9.0,-0.0,-0.1,0.0,0.98,-0.14,0.14,-0.06,0.0,0.0,0.0
1752859296671,7.0,-15.0,18.0,-3.0,-3.0,9.0,-0.0,-0.1,0.0,0.98,-0.14,0.14,-0.06,0.0,0.0,0.0
1752859296821,8.0,-15.0,19.0,-3.0,-3.0,9.0,-0.1,-0.2,0.1,0.98,-0.14,0.14,-0.06,0.0,0.0,0.0
1752859296862,8.0,-15.0,20.0,-3.0,-3.0,9.0,-0.1,-0.2,0.1,0.97,-0.15,0.14,-0.07,0.0,0.0,0.0
1752859296902,9.0,-15.0,21.0,-3.0,-4.0,9.0,-0.0,-0.2,0.1,0.97,-0.16,0.14,-0.07,0.0,0.0,0.0
1752859296948,9.0,-14.0,22.0,-2.0,-4.0,9.0,0.0,-0.0,-0.1,0.97,-0.17,0.14,-0.08,0.0,0.0,0.0
1752859296998,10.0,-14.0,24.0,-2.0,-4.0,9.0,0.1,0.2,-0.0,0.97,-0.19,0.14,-0.09,0.0,0.0,0.0
1752859297042,11.0,-14.0,25.0,-2.0,-4.0,8.0,0.1,0.2,-0.3,0.97,-0.2,0.14,-0.09,0.0,0.0,0.0
1752859297091,11.0,-14.0,25.0,-2.0,-4.0,9.0,0.0,0.1,-0.0,0.97,-0.2,0.14,-0.09,0.0,0.0,0.0
1752859297133,11.0,-14.0,25.0,-2.0,-4.0,9.0,-0.0,-0.1,-0.0,0.96,-0.2,0.14,-0.09,0.0,0.0,0.0
1752859297182,11.0,-14.0,25.0,-2.0,-4.0,9.0,-0.0,-0.2,0.1,0.97,-0.2,0.15,-0.09,0.0,0.0,0.0
1752859297527,11.0,-15.0,25.0,-3.0,-5.0,8.0,-0.0,-0.1,0.1,0.96,-0.2,0.15,-0.1,0.0,0.0,0.0
1752859297779,14.0,-15.0,29.0,-2.0,-4.0,8.0,-0.0,0.0,0.0,0.95,-0.23,0.16,-0.12,0.0,0.0,0.0
1752859297928,14.0,-15.0,30.0,-3.0,-5.0,8.0,-0.0,-0.0,0.0,0.95,-0.23,0.16,-0.12,0.0,0.0,0.0
1752859297983,14.0,-15.0,30.0,-3.0,-5.0,8.0,-0.0,-0.0,0.0,0.95,-0.23,0.16,-0.12,0.0,0.0,0.0
1752859298030,14.0,-15.0,30.0,-3.0,-5.0,8.0,-0.0,0.1,0.0,0.95,-0.23,0.16,-0.12,0.0,0.0,0.0
1752859298380,14.0,-15.0,30.0,-3.0,-5.0,8.0,-0.0,0.0,0.0,0.95,-0.23,0.16,-0.12,0.0,0.0,0.0
1752859298429,14.0,-15.0,30.0,-3.0,-5.0,8.0,-0.0,0.0,0.1,0.95,-0.23,0.16,-0.12,0.0,0.0,0.0
1752859298579,14.0,-15.0,30.0,-3.0,-5.0,8.0,-0.1,0.0,0.1,0.95,-0.23,0.16,-0.12,0.0,0.0,0.0
1752859298731,14.0,-15.0,30.0,-3.0,-5.0,8.0,-0.1,0.0,0.1,0.95,-0.23,0.16,-0.12,0.0,0.0,0.0
1752859298773,15.0,-15.0,30.0,-3.0,-5.0,8.0,-0.1,0.0,0.1,0.95,-0.23,0.16,-0.12,0.0,0.0,0.0
1752859298811,15.0,-15.0,30.0,-3.0,-5.0,8.0,-0.0,0.0,-0.0,0.95,-0.23,0.16,-0.12,0.0,0.0,0.0
1752859298854,15.0,-15.0,30.0,-3.0,-5.0,8.0,-0.0,0.0,0.0,0.95,-0.23,0.16,-0.12,0.0,0.0,0.0
1752859298895,15.0,-15.0,30.0,-3.0,-5.0,8.0,-0.0,0.0,0.0,0.95,-0.23,0.16,-0.12,0.0,0.0,0.0
1752859298943,15.0,-15.0,30.0,-3.0,-5.0,8.0,-0.0,-0.0,0.1,0.95,-0.23,0.16,-0.12,0.0,0.0,0.0
1752859299084,14.0,-15.0,30.0,-3.0,-5.0,8.0,-0.0,-0.0,0.1,0.95,-0.23,0.16,-0.12,0.0,0.0,0.0
1752859299131,15.0,-15.0,30.0,-3.0,-5.0,8.0,-0.0,0.0,0.0,0.95,-0.23,0.17,-0.12,0.0,0.0,0.0
1752859299176,15.0,-15.0,30.0,-3.0,-5.0,8.0,-0.0,0.0,0.1,0.95,-0.23,0.17,-0.12,0.0,0.0,0.0
1752859299215,15.0,-15.0,30.0,-3.0,-5.0,8.0,-0.1,0.0,0.1,0.95,-0.23,0.17,-0.12,0.0,0.0,0.0
1752859299362,15.0,-15.0,30.0,-3.0,-5.0,8.0,-0.0,0.0,0.1,0.95,-0.23,0.17,-0.12,0.0,0.0,0.0
1752859299404,15.0,-15.0,30.0,-3.0,-5.0,8.0,-0.1,-0.0,0.1,0.95,-0.23,0.17,-0.12,0.0,0.0,0.0
1752859299445,15.0,-15.0,30.0,-3.0,-5.0,8.0,-0.1,0.0,0.1,0.95,-0.23,0.17,-0.12,0.0,0.0,0.0
1752859299692,15.0,-15.0,30.0,-3.0,-5.0,8.0,-0.0,0.0,0.0,0.95,-0.23,0.17,-0.12,0.0,0.0,0.0
1752859299737,14.0,-15.0,30.0,-3.0,-5.0,8.0,-0.1,0.0,0.0,0.95,-0.23,0.17,-0.12,0.0,0.0,0.0
1752859299982,14.0,-15.0,28.0,-3.0,-4.0,9.0,-0.1,0.2,0.2,0.95,-0.23,0.17,-0.12,0.0,0.0,0.0
1752859300025,12.0,-16.0,23.0,-3.0,-3.0,9.0,-0.0,0.3,0.1,0.96,-0.18,0.16,-0.1,0.0,0.0,0.0
1752859300626,7.0,-35.0,-3.0,-6.0,1.0,8.0,-0.2,-0.1,-0.3,0.95,0.04,0.3,-0.05,0.0,0.0,0.0
1752859300664,6.0,-38.0,-8.0,-6.0,1.0,7.0,0.1,-0.1,-0.2,0.94,0.07,0.32,-0.05,0.0,0.0,0.0
1752859300706,4.0,-41.0,-14.0,-6.0,1.0,7.0,0.3,-0.7,-0.1,0.93,0.1,0.34,-0.03,0.0,0.0,0.0
1752859300747,2.0,-43.0,-19.0,-7.0,2.0,7.0,-0.1,-0.2,0.7,0.92,0.13,0.36,-0.02,0.0,0.0,0.0
1752859300788,1.0,-44.0,-23.0,-6.0,2.0,6.0,1.1,-1.3,-0.6,0.91,0.16,0.38,-0.01,0.0,0.0,0.0
1752859300832,1.0,-47.0,-29.0,-6.0,3.0,6.0,1.2,-1.6,1.4,0.9,0.18,0.4,-0.01,0.0,0.0,0.0
1752859300876,2.0,-49.0,-34.0,-7.0,2.0,5.0,0.5,-1.2,-0.1,0.88,0.22,0.43,-0.01,0.0,0.0,0.0
1752859300914,4.0,-51.0,-39.0,-7.0,3.0,6.0,0.2,-1.1,0.3,0.86,0.25,0.45,-0.03,0.0,0.0,0.0
1752859300956,8.0,-55.0,-41.0,-8.0,3.0,5.0,0.3,-1.0,0.4,0.85,0.26,0.46,-0.05,0.0,0.0,0.0
1752859300998,11.0,-58.0,-39.0,-8.0,2.0,4.0,0.3,-0.9,0.4,0.84,0.25,0.48,-0.07,0.0,0.0,0.0
1752859301366,20.0,-68.0,6.0,-9.0,-0.0,4.0,-0.1,0.0,0.1,0.81,0.07,0.56,-0.15,0.0,0.0,0.0
1752859301408,19.0,-66.0,2.0,-9.0,-0.0,4.0,0.1,-0.0,0.3,0.82,0.08,0.54,-0.14,0.0,0.0,0.0
1752859301551,17.0,-64.0,-2.0,-9.0,-0.0,4.0,0.4,-0.6,-0.0,0.83,0.09,0.53,-0.13,0.0,0.0,0.0
1752859301601,13.0,-60.0,-7.0,-8.0,0.0,5.0,0.1,-0.5,-0.0,0.86,0.09,0.5,-0.1,0.0,0.0,0.0
1752859301758,11.0,-61.0,-7.0,-9.0,1.0,5.0,0.0,0.1,0.0,0.86,0.09,0.5,-0.09,0.0,0.0,0.0
1752859301890,10.0,-64.0,-11.0,-9.0,1.0,4.0,0.1,-0.0,-0.1,0.85,0.09,0.51,-0.08,0.0,0.0,0.0
1752859301936,9.0,-65.0,-13.0,-9.0,1.0,4.0,0.1,-0.1,0.2,0.84,0.1,0.53,-0.07,0.0,0.0,0.0
1752859302086,8.0,-66.0,-17.0,-9.0,1.0,4.0,0.1,-0.1,0.2,0.84,0.11,0.53,-0.07,0.0,0.0,0.0
1752859302228,8.0,-66.0,-17.0,-9.0,1.0,4.0,0.1,0.0,-0.0,0.83,0.11,0.54,-0.06,0.0,0.0,0.0
1752859302473,8.0,-65.0,-15.0,-9.0,1.0,4.0,0.1,-0.1,0.1,0.84,0.1,0.54,-0.06,0.0,0.0,0.0
1752859302609,7.0,-64.0,-16.0,-9.0,1.0,4.0,0.1,-0.0,0.0,0.84,0.1,0.53,-0.05,0.0,0.0,0.0
1752859302655,6.0,-64.0,-16.0,-9.0,1.0,4.0,0.1,-0.1,0.1,0.84,0.1,0.53,-0.05,0.0,0.0,0.0
1752859302697,6.0,-64.0,-15.0,-9.0,1.0,4.0,0.1,-0.1,-0.1,0.84,0.1,0.53,-0.04,0.0,0.0,0.0
1752859302745,6.0,-64.0,-15.0,-9.0,1.0,4.0,-0.1,-0.0,-0.1,0.84,0.1,0.53,-0.04,0.0,0.0,0.0
1752859302903,5.0,-64.0,-15.0,-9.0,1.0,4.0,0.0,0.1,-0.0,0.84,0.09,0.53,-0.04,0.0,0.0,0.0
1752859302940,5.0,-64.0,-15.0,-9.0,1.0,4.0,0.1,-0.1,-0.0,0.84,0.09,0.53,-0.04,0.0,0.0,0.0
1752859303199,5.0,-64.0,-16.0,-9.0,1.0,4.0,0.1,-0.1,-0.0,0.84,0.09,0.53,-0.03,0.0,0.0,0.0
1752859303232,3.0,-66.0,-18.0,-9.0,1.0,4.0,0.1,-0.1,-0.1,0.83,0.09,0.55,-0.02,0.0,0.0,0.0
1752859303382,4.0,-68.0,-21.0,-9.0,1.0,3.0,0.1,-0.0,-0.0,0.83,0.09,0.55,-0.03,0.0,0.0,0.0
1752859303413,4.0,-68.0,-23.0,-9.0,1.0,3.0,0.2,-0.0,-0.4,0.82,0.11,0.56,-0.03,0.0,0.0,0.0
1752859303456,5.0,-68.0,-24.0,-9.0,1.0,3.0,0.1,-0.1,-0.4,0.82,0.11,0.56,-0.03,0.0,0.0,0.0
1752859303499,6.0,-69.0,-26.0,-9.0,1.0,4.0,-0.5,-0.2,0.3,0.81,0.13,0.57,-0.04,0.0,0.0,0.0
1752859303546,7.0,-69.0,-28.0,-10.0,1.0,3.0,-0.5,-0.3,0.0,0.81,0.14,0.57,-0.05,0.0,0.0,0.0
1752859303583,9.0,-69.0,-30.0,-11.0,2.0,6.0,-0.8,-0.3,-0.3,0.81,0.15,0.57,-0.06,0.0,0.0,0.0
1752859303630,9.0,-69.0,-28.0,-9.0,2.0,3.0,0.9,0.8,-1.2,0.81,0.15,0.57,-0.06,0.0,0.0,0.0
1752859303666,5.0,-70.0,-12.0,-10.0,-2.0,-2.0,-0.9,-2.4,-4.8,0.81,0.09,0.57,-0.05,0.0,0.0,0.0
1752859303713,0.0,-71.0,10.0,-9.0,0.0,3.0,0.7,1.1,0.1,0.81,-0.0,0.58,-0.01,0.0,0.0,0.0
1752859303746,356.0,-71.0,29.0,-9.0,-1.0,4.0,0.3,1.5,1.3,0.8,-0.12,0.58,0.03,0.0,0.0,0.0
1752859303883,345.0,-71.0,52.0,-9.0,-2.0,2.0,-0.3,0.6,-0.0,0.78,-0.21,0.58,0.07,0.0,0.0,0.0
1752859303931,345.0,-72.0,50.0,-10.0,-4.0,2.0,-0.3,-1.4,-0.1,0.77,-0.23,0.59,0.1,0.0,0.0,0.0
1752859303967,345.0,-74.0,49.0,-10.0,-2.0,2.0,-0.9,-0.4,-0.2,0.76,-0.22,0.6,0.1,0.0,0.0,0.0
1752859304007,345.0,-75.0,49.0,-11.0,-3.0,2.0,-1.1,-1.3,0.3,0.76,-0.21,0.61,0.1,0.0,0.0,0.0
1752859304255,332.0,-73.0,80.0,-9.0,-3.0,2.0,0.6,-0.1,1.3,0.75,-0.22,0.61,0.11,0.0,0.0,0.0
1752859304288,331.0,-73.0,82.0,-9.0,-2.0,1.0,0.1,1.1,1.2,0.7,-0.36,0.59,0.18,0.0,0.0,0.0
1752859304322,332.0,-73.0,82.0,-11.0,-1.0,2.0,-1.9,1.4,2.1,0.7,-0.36,0.59,0.18,0.0,0.0,0.0
1752859304362,332.0,-73.0,84.0,-9.0,-4.0,0.0,0.1,-1.1,-0.2,0.7,-0.36,0.6,0.17,0.0,0.0,0.0
1752859304404,332.0,-73.0,85.0,-10.0,-5.0,-1.0,-0.2,-1.9,-0.9,0.7,-0.35,0.6,0.17,0.0,0.0,0.0
1752859304545,332.0,-73.0,86.0,-9.0,-3.0,1.0,0.8,0.1,0.6,0.69,-0.35,0.6,0.17,0.0,0.0,0.0
1752859304589,331.0,-73.0,92.0,-10.0,-1.0,2.0,0.4,0.1,0.9,0.68,-0.37,0.61,0.18,0.0,0.0,0.0
1752859304634,332.0,-73.0,90.0,-11.0,-3.0,1.0,-0.2,-0.3,0.3,0.68,-0.36,0.61,0.17,0.0,0.0,0.0
1752859305249,345.0,-74.0,62.0,-9.0,-2.0,1.0,0.5,0.6,-0.4,0.75,-0.25,0.61,0.1,0.0,0.0,0.0
1752859305285,345.0,-74.0,68.0,-9.0,-2.0,1.0,0.2,0.2,0.4,0.74,-0.26,0.62,0.1,0.0,0.0,0.0
1752859305330,344.0,-75.0,76.0,-10.0,-3.0,1.0,-1.1,-0.3,1.0,0.72,-0.26,0.63,0.1,0.0,0.0,0.0
1752859305368,344.0,-76.0,86.0,-10.0,-2.0,1.0,-0.6,-0.2,0.7,0.71,-0.26,0.65,0.1,0.0,0.0,0.0
1752859305409,343.0,-77.0,94.0,-10.0,-2.0,1.0,-0.3,0.2,0.8,0.7,-0.26,0.66,0.1,0.0,0.0,0.0
1752859305551,341.0,-78.0,127.0,-10.0,-1.0,-1.0,0.0,0.0,0.0,0.69,-0.25,0.67,0.1,0.0,0.0,0.0
1752859305798,334.0,-73.0,159.0,-10.0,-2.0,-3.0,0.0,0.0,0.0,0.59,-0.27,0.75,0.14,0.0,0.0,0.0
1752859305846,325.0,-73.0,160.0,-9.0,1.0,-2.0,-0.1,2.1,0.5,0.58,-0.31,0.74,0.17,0.0,0.0,0.0
1752859305978,311.0,-74.0,152.0,-11.0,-9.0,2.0,-1.9,-7.6,4.7,0.56,-0.36,0.72,0.21,0.0,0.0,0.0
1752859306024,314.0,-74.0,145.0,-11.0,0.0,-2.0,-1.8,1.9,-0.3,0.57,-0.42,0.66,0.25,0.0,0.0,0.0
1752859306060,320.0,-76.0,136.0,-9.0,-2.0,-2.0,0.6,-0.3,-0.4,0.6,-0.39,0.66,0.23,0.0,0.0,0.0
1752859306206,322.0,-72.0,111.0,-11.0,-2.0,-1.0,-0.4,0.0,0.3,0.62,-0.37,0.66,0.21,0.0,0.0,0.0
1752859306249,321.0,-70.0,111.0,-9.0,-2.0,-2.0,0.4,1.1,-0.3,0.62,-0.46,0.59,0.22,0.0,0.0,0.0
1752859306296,322.0,-69.0,112.0,-9.0,-4.0,-1.0,0.3,-0.4,0.3,0.62,-0.48,0.58,0.21,0.0,0.0,0.0
1752859306336,324.0,-68.0,112.0,-9.0,-4.0,-1.0,0.5,-0.7,0.7,0.62,-0.47,0.59,0.2,0.0,0.0,0.0
1752859306372,326.0,-67.0,113.0,-9.0,-3.0,-0.0,0.0,0.6,1.2,0.62,-0.47,0.59,0.19,0.0,0.0,0.0
1752859306519,330.0,-66.0,115.0,-9.0,-3.0,-1.0,-0.4,0.6,0.6,0.62,-0.48,0.6,0.19,0.0,0.0,0.0
1752859306756,329.0,-67.0,115.0,-9.0,-3.0,-1.0,0.2,0.5,1.0,0.62,-0.46,0.61,0.17,0.0,0.0,0.0
1752859306913,331.0,-69.0,106.0,-10.0,-3.0,0.0,0.2,-0.4,-0.8,0.65,-0.43,0.61,0.17,0.0,0.0,0.0
1752859306957,338.0,-72.0,99.0,-10.0,-3.0,-4.0,-0.9,0.3,-3.4,0.68,-0.35,0.63,0.13,0.0,0.0,0.0
1752859307002,340.0,-72.0,99.0,-9.0,-6.0,0.0,0.9,-0.7,0.7,0.68,-0.34,0.64,0.13,0.0,0.0,0.0
1752859307048,341.0,-72.0,99.0,-10.0,-4.0,4.0,-1.1,-0.6,5.0,0.68,-0.33,0.65,0.11,0.0,0.0,0.0
1752859307084,339.0,-70.0,103.0,-10.0,-4.0,-1.0,0.2,-0.2,-0.2,0.67,-0.36,0.64,0.12,0.0,0.0,0.0
1752859307132,333.0,-67.0,111.0,-9.0,-3.0,0.0,-0.3,0.2,1.8,0.64,-0.42,0.62,0.15,0.0,0.0,0.0
1752859307163,330.0,-66.0,114.0,-9.0,-3.0,-1.0,-0.3,0.3,0.5,0.63,-0.46,0.61,0.17,0.0,0.0,0.0
1752859307304,323.0,-64.0,116.0,-9.0,-4.0,-1.0,-0.1,-0.4,1.2,0.62,-0.47,0.6,0.17,0.0,0.0,0.0
1752859307454,318.0,-68.0,122.0,-9.0,-4.0,-1.0,0.5,-1.4,0.2,0.6,-0.52,0.58,0.21,0.0,0.0,0.0
1752859307490,317.0,-69.0,125.0,-10.0,-3.0,-2.0,-0.2,-0.7,0.1,0.59,-0.49,0.6,0.23,0.0,0.0,0.0
1752859307536,316.0,-69.0,127.0,-10.0,-3.0,-1.0,-0.5,-0.5,0.6,0.58,-0.49,0.61,0.23,0.0,0.0,0.0
1752859307673,317.0,-67.0,125.0,-9.0,-3.0,-1.0,-0.3,0.1,1.1,0.58,-0.49,0.61,0.24,0.0,0.0,0.0
1752859307722,318.0,-67.0,122.0,-9.0,-3.0,-1.0,-0.3,0.0,1.0,0.59,-0.51,0.59,0.23,0.0,0.0,0.0
1752859308077,326.0,-61.0,115.0,-9.0,-5.0,-2.0,-0.1,-0.2,0.5,0.61,-0.54,0.55,0.19,0.0,0.0,0.0
1752859308110,325.0,-61.0,115.0,-8.0,-4.0,-2.0,-0.4,0.4,0.6,0.6,-0.54,0.56,0.19,0.0,0.0,0.0
1752859308160,324.0,-62.0,116.0,-9.0,-4.0,-2.0,0.0,0.2,0.4,0.6,-0.54,0.56,0.19,0.0,0.0,0.0
1752859308210,323.0,-63.0,118.0,-9.0,-3.0,-1.0,-0.2,0.3,0.9,0.59,-0.53,0.57,0.2,0.0,0.0,0.0
1752859308344,321.0,-67.0,118.0,-9.0,-3.0,-2.0,0.7,0.3,-0.7,0.6,-0.5,0.59,0.21,0.0,0.0,0.0
1752859308379,321.0,-68.0,117.0,-8.0,-2.0,-2.0,-0.4,1.1,-0.4,0.61,-0.48,0.59,0.21,0.0,0.0,0.0
1752859308468,319.0,-69.0,122.0,-9.0,-4.0,-1.0,0.3,-0.8,0.3,0.6,-0.47,0.61,0.22,0.0,0.0,0.0
1752859308614,278.0,-63.0,156.0,-8.0,-3.0,-4.0,0.5,-1.2,-0.1,0.43,-0.65,0.52,0.35,0.0,0.0,0.0
1752859308867,264.0,-62.0,163.0,-9.0,-4.0,-4.0,0.4,-0.6,0.8,0.36,-0.7,0.48,0.38,0.0,0.0,0.0
1752859308920,235.0,-62.0,173.0,-10.0,-3.0,-3.0,-1.4,-4.3,1.2,0.24,-0.78,0.34,0.46,0.0,0.0,0.0
1752859308957,226.0,-62.0,175.0,-8.0,-0.0,-3.0,0.3,-0.0,1.7,0.2,-0.8,0.3,0.47,0.0,0.0,0.0
1752859309008,214.0,-61.0,179.0,-9.0,1.0,-6.0,-0.3,1.3,-1.2,0.16,-0.82,0.26,0.48,0.0,0.0,0.0
1752859309059,203.0,-61.0,-176.0,-9.0,-0.0,-6.0,-0.3,-0.9,-1.0,0.1,-0.84,0.2,0.5,0.0,0.0,0.0
1752859309092,193.0,-60.0,-172.0,-8.0,1.0,-6.0,0.5,0.7,0.1,0.06,-0.85,0.17,0.5,0.0,0.0,0.0
1752859309126,42.0,-58.0,-168.0,-9.0,1.0,-5.0,-0.4,-0.6,0.3,-0.46,-0.42,-0.76,0.19,0.0,0.0,0.0
1752859309176,34.0,-57.0,-165.0,-8.0,1.0,-6.0,-0.4,-0.3,-0.4,-0.46,-0.4,-0.77,0.15,0.0,0.0,0.0
1752859309218,28.0,-55.0,-162.0,-8.0,2.0,-5.0,0.3,-0.0,0.1,-0.46,-0.39,-0.79,0.12,0.0,0.0,0.0
1752859309261,27.0,-54.0,-162.0,-8.0,2.0,-5.0,0.0,0.0,0.0,-0.46,-0.39,-0.79,0.11,0.0,0.0,0.0
1752859309868,158.0,-61.0,127.0,-9.0,-5.0,-3.0,-0.4,-0.8,-0.3,-0.11,-0.66,-0.46,0.58,0.0,0.0,0.0
1752859309912,155.0,-63.0,131.0,-9.0,-4.0,-3.0,0.1,-1.0,0.1,-0.12,-0.67,-0.45,0.58,0.0,0.0,0.0
1752859309961,151.0,-64.0,137.0,-9.0,-3.0,-2.0,-0.4,-0.5,1.2,-0.15,-0.68,-0.44,0.57,0.0,0.0,0.0
1752859310006,145.0,-66.0,144.0,-9.0,-3.0,-2.0,-0.2,-0.3,0.9,-0.17,-0.69,-0.44,0.55,0.0,0.0,0.0
1752859310049,140.0,-67.0,149.0,-10.0,-1.0,-3.0,-0.8,0.2,0.9,-0.2,-0.69,-0.44,0.54,0.0,0.0,0.0
1752859310090,137.0,-69.0,154.0,-11.0,-2.0,-1.0,-1.6,-0.2,2.4,-0.21,-0.69,-0.43,0.54,0.0,0.0,0.0
1752859310130,135.0,-71.0,158.0,-11.0,-1.0,-2.0,-1.6,0.5,0.7,-0.22,-0.7,-0.4,0.55,0.0,0.0,0.0
1752859310166,132.0,-73.0,164.0,-13.0,-3.0,-1.0,0.0,0.0,0.0,-0.24,-0.7,-0.38,0.55,0.0,0.0,0.0
1752859310216,131.0,-76.0,171.0,-12.0,-1.0,-2.0,-2.4,-0.5,-0.3,-0.25,-0.7,-0.36,0.56,0.0,0.0,0.0
1752859310263,128.0,-78.0,-180.0,-12.0,0.0,-1.0,-2.1,-0.2,0.8,-0.28,-0.7,-0.34,0.57,0.0,0.0,0.0
1752859325862,357.0,12.0,20.0,-10.0,-4.0,-7.0,-12.1,-0.9,-15.8,0.98,-0.17,-0.11,0.02,0.0,0.0,0.0
1752859325901,356.0,13.0,19.0,-8.0,-3.0,-4.0,-10.4,0.1,-1.0,0.98,-0.16,-0.12,0.04,0.0,0.0,0.0
1752859326048,3.0,1.0,-3.0,-10.0,2.0,3.0,-9.4,1.2,-7.3,0.99,-0.12,-0.11,0.03,0.0,0.0,0.0
1752859326198,6.0,-3.0,-3.0,-9.0,-5.0,-8.0,-7.9,-3.5,-17.1,1.0,0.02,0.02,-0.05,0.0,0.0,0.0
1752859326243,7.0,-7.0,8.0,-9.0,-4.0,-5.0,-7.9,-2.4,-14.3,0.99,-0.06,0.07,-0.06,0.0,0.0,0.0
1752859326293,5.0,-5.0,6.0,-9.0,-2.0,-3.0,-8.7,-0.1,-12.3,1.0,-0.05,0.05,-0.05,0.0,0.0,0.0
1752859326334,3.0,-1.0,4.0,-9.0,-0.0,-1.0,-8.8,0.4,-10.6,1.0,-0.03,0.02,-0.03,0.0,0.0,0.0
1752859326374,1.0,2.0,4.0,-9.0,-0.0,0.0,-9.8,0.5,-9.7,1.0,-0.03,-0.01,-0.02,0.0,0.0,0.0
1752859326414,0.0,7.0,4.0,-9.0,-2.0,-0.0,-10.8,-0.8,-10.0,1.0,-0.04,-0.05,-0.0,0.0,0.0,0.0
1752859326452,360.0,11.0,6.0,-10.0,-2.0,-3.0,0.0,0.0,0.0,1.0,-0.05,-0.08,0.0,0.0,0.0,0.0
1752859326810,9.0,-10.0,-5.0,-8.0,-3.0,-4.0,-6.2,-4.1,-13.4,0.99,0.05,0.08,-0.08,0.0,0.0,0.0
1752859326853,8.0,-9.0,-0.0,-8.0,-3.0,-6.0,-6.9,-3.4,-15.0,0.99,0.02,0.08,-0.07,0.0,0.0,0.0
1752859326994,6.0,-4.0,1.0,-9.0,-2.0,-3.0,-8.0,-2.5,-12.7,1.0,-0.01,0.07,-0.06,0.0,0.0,0.0
1752859327040,6.0,-3.0,-5.0,-9.0,-1.0,-1.0,-8.3,-2.3,-10.0,1.0,0.03,0.03,-0.05,0.0,0.0,0.0
1752859327083,5.0,-2.0,-8.0,-9.0,-1.0,-0.0,-8.8,-2.5,-10.3,1.0,0.07,0.02,-0.04,0.0,0.0,0.0
1752859327123,5.0,-1.0,-8.0,-9.0,-1.0,-1.0,-9.5,-2.5,-11.4,1.0,0.07,0.01,-0.04,0.0,0.0,0.0
1752859327162,4.0,-0.0,-8.0,-10.0,-2.0,-2.0,-10.4,-3.3,-11.7,1.0,0.07,0.0,-0.04,0.0,0.0,0.0
1752859327204,4.0,0.0,-8.0,-10.0,-2.0,-3.0,-10.0,-3.3,-12.8,1.0,0.07,-0.0,-0.03,0.0,0.0,0.0
1752859327251,3.0,0.0,-10.0,-9.0,-2.0,-2.0,-8.8,-3.8,-12.1,1.0,0.08,-0.01,-0.03,0.0,0.0,0.0
1752859327295,3.0,-1.0,-11.0,-8.0,-2.0,-3.0,-7.6,-4.0,-1.0,1.0,0.09,0.01,-0.02,0.0,0.0,0.0
1752859327341,4.0,-4.0,-8.0,-8.0,-3.0,-4.0,-7.7,-3.7,-13.8,1.0,0.08,0.03,-0.03,0.0,0.0,0.0
1752859327484,7.0,-13.0,-2.0,-9.0,-1.0,-2.0,-6.8,-1.8,-12.5,0.99,0.03,0.11,-0.06,0.0,0.0,0.0
1752859327525,8.0,-13.0,1.0,-9.0,-2.0,-5.0,-6.4,-1.6,-14.3,0.99,0.01,0.12,-0.07,0.0,0.0,0.0
1752859327563,9.0,-13.0,2.0,-9.0,-2.0,-5.0,-6.6,-2.1,-14.1,0.99,-0.01,0.11,-0.07,0.0,0.0,0.0
1752859327605,9.0,-11.0,3.0,-9.0,-3.0,-4.0,-7.1,-2.0,-13.9,0.99,-0.02,0.1,-0.08,0.0,0.0,0.0
1752859327648,9.0,-9.0,4.0,-9.0,-2.0,-4.0,-7.8,-1.6,-13.4,0.99,-0.03,0.09,-0.08,0.0,0.0,0.0
1752859327691,10.0,-7.0,4.0,-9.0,-2.0,-5.0,-7.9,-2.0,-1.0,0.99,-0.03,0.07,-0.08,0.0,0.0,0.0
1752859327740,10.0,-5.0,4.0,-9.0,-2.0,-3.0,-7.6,-1.2,-12.7,0.99,-0.03,0.05,-0.09,0.0,0.0,0.0
1752859327885,13.0,1.0,13.0,-9.0,-5.0,-3.0,-9.3,-1.9,-12.9,0.99,-0.11,0.0,-0.11,0.0,0.0,0.0
1752859327926,15.0,4.0,16.0,-9.0,-4.0,-3.0,-9.9,-1.6,-12.5,0.98,-0.13,-0.01,-0.12,0.0,0.0,0.0
1752859327964,17.0,6.0,21.0,-10.0,-3.0,-1.0,-10.6,0.9,-10.4,0.97,-0.17,-0.03,-0.14,0.0,0.0,0.0
1752859328006,19.0,6.0,25.0,-11.0,-8.0,-1.0,-12.1,-3.5,-9.8,0.96,-0.22,-0.02,-0.16,0.0,0.0,0.0
1752859328359,23.0,9.0,34.0,-9.0,-1.0,-3.0,-9.8,4.2,-11.4,0.96,-0.24,0.0,-0.16,0.0,0.0,0.0
1752859328399,21.0,4.0,32.0,-9.0,-1.0,-4.0,-9.9,4.0,-12.3,0.94,-0.28,0.01,-0.17,0.0,0.0,0.0
1752859328444,20.0,5.0,30.0,-9.0,-2.0,-6.0,-9.3,2.7,-15.0,0.95,-0.27,0.0,-0.17,0.0,0.0,0.0
1752859328492,19.0,6.0,29.0,-9.0,-4.0,-4.0,-9.4,0.5,-12.0,0.95,-0.25,-0.01,-0.16,0.0,0.0,0.0
1752859328639,22.0,-2.0,31.0,-8.0,-3.0,-3.0,-8.5,3.4,-11.2,0.95,-0.26,0.07,-0.18,0.0,0.0,0.0
1752859328677,23.0,-2.0,41.0,-9.0,-0.0,-4.0,-8.2,6.2,-1.0,0.92,-0.32,0.08,-0.19,0.0,0.0,0.0
1752859328717,24.0,-2.0,46.0,-9.0,-1.0,-6.0,-8.5,6.5,-12.7,0.9,-0.37,0.09,-0.19,0.0,0.0,0.0
1752859328767,23.0,-2.0,49.0,-8.0,-0.0,-7.0,-7.6,6.3,-13.0,0.89,-0.4,0.1,-0.19,0.0,0.0,0.0
1752859328808,23.0,-3.0,49.0,-8.0,-1.0,-6.0,-7.8,6.2,-12.2,0.89,-0.4,0.11,-0.18,0.0,0.0,0.0
1752859329055,325.0,-59.0,154.0,-8.0,-2.0,-5.0,0.2,0.3,-0.5,0.9,-0.39,0.11,-0.18,0.0,0.0,0.0
1752859329099,297.0,-60.0,152.0,-8.0,-3.0,-4.0,0.5,-0.3,-0.0,0.45,-0.62,0.58,0.28,0.0,0.0,0.0
1752859329145,296.0,-62.0,151.0,-7.0,-3.0,-4.0,1.4,-0.6,-0.4,0.46,-0.61,0.58,0.28,0.0,0.0,0.0
1752859329428,283.0,-68.0,151.0,-10.0,-2.0,-3.0,-0.8,-0.1,0.1,0.45,-0.62,0.56,0.32,0.0,0.0,0.0
1752859329468,282.0,-69.0,149.0,-9.0,-1.0,-4.0,-0.1,0.3,-0.7,0.46,-0.62,0.52,0.37,0.0,0.0,0.0
1752859329509,281.0,-70.0,146.0,-9.0,-2.0,-3.0,0.7,-0.5,-0.5,0.46,-0.62,0.51,0.38,0.0,0.0,0.0
1752859329651,289.0,-72.0,126.0,-10.0,-2.0,-3.0,-1.0,0.0,-1.1,0.47,-0.62,0.5,0.38,0.0,0.0,0.0
1752859330398,232.0,-62.0,150.0,-10.0,-4.0,-2.0,-0.6,-1.4,2.5,0.24,-0.82,0.16,0.49,0.0,0.0,0.0
1752859330530,245.0,-60.0,141.0,-9.0,-4.0,-2.0,-0.4,-1.0,2.1,0.25,-0.82,0.17,0.48,0.0,0.0,0.0
1752859330570,244.0,-59.0,140.0,-10.0,-3.0,-2.0,-1.1,0.2,2.0,0.29,-0.82,0.17,0.47,0.0,0.0,0.0
1752859330615,243.0,-59.0,139.0,-8.0,-3.0,-3.0,0.0,0.0,0.0,0.29,-0.82,0.15,0.47,0.0,0.0,0.0
1752859330759,244.0,-63.0,134.0,-9.0,-4.0,-3.0,-0.0,-0.3,0.7,0.31,-0.8,0.16,0.49,0.0,0.0,0.0
1752859330803,245.0,-65.0,133.0,-9.0,-4.0,-2.0,-0.1,-0.7,0.9,0.32,-0.78,0.19,0.5,0.0,0.0,0.0
1752859330950,257.0,-70.0,134.0,-10.0,-1.0,-1.0,-0.8,0.7,0.0,0.33,-0.76,0.22,0.51,0.0,0.0,0.0
1752859330992,259.0,-71.0,138.0,-9.0,-2.0,-2.0,-0.1,0.2,0.7,0.39,-0.71,0.35,0.48,0.0,0.0,0.0
1752859331029,259.0,-72.0,141.0,-9.0,-2.0,-2.0,0.0,-0.2,0.4,0.39,-0.7,0.36,0.48,0.0,0.0,0.0
1752859331073,261.0,-73.0,144.0,-9.0,-1.0,-2.0,-0.1,0.4,0.7,0.4,-0.68,0.39,0.47,0.0,0.0,0.0
1752859331113,262.0,-73.0,146.0,-10.0,-1.0,-2.0,-0.2,0.8,0.5,0.41,-0.67,0.41,0.47,0.0,0.0,0.0
1752859331258,259.0,-76.0,157.0,-8.0,-1.0,-3.0,-1.4,-0.0,1.2,0.41,-0.66,0.42,0.46,0.0,0.0,0.0
1752859331308,258.0,-77.0,158.0,-10.0,-1.0,-2.0,0.2,0.1,-0.2,0.39,-0.65,0.43,0.49,0.0,0.0,0.0
1752859331468,258.0,-77.0,164.0,-9.0,-1.0,-2.0,0.1,-0.0,0.0,0.4,-0.63,0.45,0.49,0.0,0.0,0.0
1752859331714,256.0,-75.0,168.0,-10.0,-0.0,-2.0,0.2,0.2,1.0,0.39,-0.64,0.45,0.49,0.0,0.0,0.0
1752859331972,252.0,-76.0,163.0,-9.0,-1.0,-2.0,0.1,-0.3,0.2,0.37,-0.66,0.41,0.5,0.0,0.0,0.0
1752859332105,254.0,-77.0,157.0,-10.0,-2.0,-2.0,-0.0,-0.3,-0.2,0.38,-0.66,0.41,0.5,0.0,0.0,0.0
1752859332251,269.0,-79.0,120.0,-10.0,-1.0,0.0,0.3,0.9,1.6,0.41,-0.65,0.39,0.5,0.0,0.0,0.0
1752859332299,277.0,-80.0,108.0,-10.0,-1.0,-1.0,-0.7,0.3,-0.9,0.51,-0.56,0.46,0.46,0.0,0.0,0.0
1752859332337,283.0,-82.0,88.0,-9.0,-3.0,-0.0,0.5,-1.3,-0.2,0.55,-0.52,0.49,0.44,0.0,0.0,0.0
1752859332381,286.0,-83.0,68.0,-9.0,-2.0,1.0,0.3,-0.6,0.8,0.57,-0.48,0.5,0.43,0.0,0.0,0.0
1752859332435,287.0,-82.0,53.0,-9.0,-1.0,1.0,0.3,0.1,0.1,0.59,-0.46,0.5,0.43,0.0,0.0,0.0
1752859332557,288.0,-79.0,34.0,-10.0,-1.0,2.0,0.1,-0.2,0.5,0.6,-0.45,0.5,0.44,0.0,0.0,0.0
1752859332701,290.0,-81.0,29.0,-9.0,-1.0,2.0,0.4,-0.0,0.3,0.62,-0.43,0.49,0.44,0.0,0.0,0.0
1752859332745,289.0,-82.0,32.0,-9.0,-1.0,2.0,0.6,-0.3,0.5,0.61,-0.42,0.51,0.43,0.0,0.0,0.0
1752859332793,289.0,-83.0,39.0,-9.0,-1.0,2.0,1.0,-0.4,0.9,0.6,-0.43,0.51,0.43,0.0,0.0,0.0
1752859332830,289.0,-84.0,4.0,-8.0,-1.0,2.0,1.6,-0.7,1.8,0.59,-0.44,0.52,0.43,0.0,0.0,0.0
1752859332870,289.0,-86.0,4.0,-8.0,-1.0,3.0,1.4,-0.2,3.0,0.59,-0.44,0.53,0.42,0.0,0.0,0.0
1752859333218,279.0,-78.0,-170.0,-11.0,-1.0,-6.0,1.1,-0.0,2.8,0.58,-0.44,0.55,0.41,0.0,0.0,0.0
1752859333268,288.0,-56.0,179.0,-11.0,-6.0,-9.0,-2.9,-6.1,-3.3,0.38,-0.53,0.71,0.27,0.0,0.0,0.0
1752859333309,297.0,-48.0,175.0,-7.0,1.0,-5.0,0.9,0.9,1.3,0.35,-0.54,0.73,0.23,0.0,0.0,0.0
1752859333349,289.0,-43.0,171.0,-5.0,-0.0,-5.0,1.3,1.2,2.2,0.33,-0.54,0.76,0.16,0.0,0.0,0.0
1752859333385,288.0,-38.0,175.0,-4.0,1.0,-7.0,1.7,1.3,0.7,0.29,-0.55,0.76,0.16,0.0,0.0,0.0
1752859333632,281.0,-14.0,-155.0,-3.0,5.0,-12.0,-0.6,0.8,-3.1,0.23,-0.58,0.76,0.19,0.0,0.0,0.0
1752859333685,281.0,-11.0,-155.0,-2.0,3.0,-9.0,-0.6,-1.0,0.5,-0.05,-0.62,0.75,0.23,0.0,0.0,0.0
1752859333718,279.0,-9.0,-154.0,-2.0,4.0,-8.0,-0.8,-0.7,0.6,-0.08,-0.63,0.74,0.22,0.0,0.0,0.0
1752859333968,279.0,-1.0,-146.0,1.0,6.0,-7.0,1.4,0.1,1.3,-0.1,-0.63,0.74,0.22,0.0,0.0,0.0
1752859334116,279.0,-2.0,-148.0,-0.0,5.0,-8.0,0.1,0.1,0.1,-0.16,-0.62,0.73,0.22,0.0,0.0,0.0
1752859334270,281.0,0.0,-153.0,-3.0,2.0,-9.0,-2.6,-2.2,-0.1,-0.15,-0.62,0.75,0.18,0.0,0.0,0.0
1752859334504,282.0,0.0,-156.0,0.0,4.0,-9.0,0.1,0.3,0.0,-0.15,-0.62,0.75,0.17,0.0,0.0,0.0
1752859334647,282.0,-0.0,-155.0,0.0,4.0,-9.0,1.7,0.9,-0.0,-0.13,-0.62,0.76,0.17,0.0,0.0,0.0
1752859334686,281.0,1.0,-153.0,1.0,6.0,-9.0,0.0,1.4,0.4,-0.16,-0.62,0.75,0.17,0.0,0.0,0.0
1752859334728,282.0,2.0,-152.0,0.0,5.0,-8.0,0.0,0.8,0.3,-0.17,-0.61,0.75,0.18,0.0,0.0,0.0
1752859334776,282.0,2.0,-151.0,0.0,5.0,-8.0,-0.1,0.5,0.2,-0.17,-0.61,0.75,0.18,0.0,0.0,0.0
1752859334820,283.0,2.0,-150.0,0.0,5.0,-8.0,-0.2,0.3,0.6,-0.18,-0.6,0.76,0.19,0.0,0.0,0.0
1752859334971,284.0,3.0,-147.0,1.0,5.0,-8.0,0.1,-0.3,-0.3,-0.18,-0.6,0.76,0.2,0.0,0.0,0.0
1752859335030,284.0,2.0,-147.0,1.0,5.0,-8.0,0.2,0.0,-0.1,-0.19,-0.59,0.75,0.21,0.0,0.0,0.0
1752859335065,283.0,3.0,-147.0,1.0,6.0,-8.0,0.1,0.5,0.2,-0.19,-0.6,0.75,0.21,0.0,0.0,0.0
1752859335117,283.0,3.0,-147.0,1.0,6.0,-8.0,0.3,0.3,0.4,-0.2,-0.6,0.75,0.2,0.0,0.0,0.0
1752859335269,283.0,3.0,-148.0,1.0,5.0,-8.0,0.0,0.3,0.6,-0.2,-0.6,0.75,0.2,0.0,0.0,0.0
1752859335873,284.0,4.0,-145.0,1.0,6.0,-8.0,-0.0,0.1,0.4,-0.21,-0.59,0.75,0.22,0.0,0.0,0.0
1752859336023,285.0,6.0,-142.0,1.0,7.0,-8.0,0.3,0.6,-0.0,-0.22,-0.59,0.75,0.22,0.0,0.0,0.0
1752859336065,285.0,6.0,-141.0,2.0,7.0,-8.0,0.4,0.5,-0.4,-0.25,-0.57,0.75,0.23,0.0,0.0,0.0
1752859336251,286.0,8.0,-139.0,1.0,7.0,-7.0,-0.2,0.0,0.2,-0.26,-0.57,0.75,0.23,0.0,0.0,0.0
1752859336359,287.0,9.0,-137.0,2.0,7.0,-7.0,0.2,0.3,-0.2,-0.28,-0.56,0.75,0.24,0.0,0.0,0.0
1752859336509,288.0,9.0,-137.0,2.0,6.0,-7.0,0.6,-0.1,0.0,-0.28,-0.55,0.74,0.24,0.0,0.0,0.0
1752859336859,292.0,9.0,-137.0,2.0,6.0,-8.0,-0.2,0.0,-0.8,-0.27,-0.54,0.76,0.25,0.0,0.0,0.0
1752859337013,292.0,9.0,-137.0,2.0,7.0,-7.0,0.2,0.1,0.2,-0.27,-0.52,0.77,0.25,0.0,0.0,0.0
1752859337057,292.0,9.0,-138.0,2.0,6.0,-7.0,0.2,-0.1,0.2,-0.27,-0.52,0.77,0.25,0.0,0.0,0.0
1752859337093,291.0,9.0,-138.0,1.0,6.0,-7.0,0.0,0.0,0.3,-0.27,-0.52,0.77,0.25,0.0,0.0,0.0
1752859337246,292.0,8.0,-138.0,2.0,7.0,-8.0,0.1,0.1,-0.4,-0.26,-0.53,0.77,0.25,0.0,0.0,0.0
1752859337281,293.0,8.0,-137.0,2.0,8.0,-8.0,0.8,1.3,-1.6,-0.27,-0.51,0.77,0.26,0.0,0.0,0.0
1752859337641,292.0,9.0,-139.0,1.0,7.0,-7.0,-0.1,0.1,0.1,-0.26,-0.52,0.77,0.25,0.0,0.0,0.0
1752859337674,293.0,9.0,-139.0,1.0,6.0,-7.0,-0.1,-0.1,-0.0,-0.26,-0.52,0.78,0.25,0.0,0.0,0.0
1752859337708,293.0,9.0,-138.0,2.0,6.0,-7.0,0.1,-0.5,0.1,-0.26,-0.52,0.78,0.25,0.0,0.0,0.0
1752859337754,293.0,8.0,-138.0,2.0,7.0,-8.0,0.1,0.2,-0.4,-0.26,-0.52,0.78,0.25,0.0,0.0,0.0
1752859337791,293.0,8.0,-138.0,2.0,7.0,-7.0,0.2,0.1,-0.2,-0.26,-0.52,0.78,0.25,0.0,0.0,0.0
1752859337942,292.0,8.0,-139.0,2.0,7.0,-7.0,0.1,0.3,-0.1,-0.26,-0.52,0.78,0.25,0.0,0.0,0.0
1752859337983,293.0,9.0,-138.0,1.0,4.0,-6.0,-0.2,-2.0,1.3,-0.26,-0.52,0.78,0.25,0.0,0.0,0.0
1752859338025,292.0,8.0,-138.0,2.0,7.0,-8.0,0.2,0.3,-0.3,-0.27,-0.52,0.77,0.25,0.0,0.0,0.0
1752859338075,292.0,8.0,-139.0,2.0,6.0,-7.0,0.1,0.1,-0.1,-0.26,-0.52,0.77,0.25,0.0,0.0,0.0
1752859338216,291.0,7.0,-140.0,1.0,6.0,-7.0,0.0,0.2,0.3,-0.26,-0.52,0.77,0.25,0.0,0.0,0.0
1752859338463,292.0,8.0,-136.0,2.0,6.0,-7.0,0.2,-0.5,0.2,-0.25,-0.53,0.77,0.24,0.0,0.0,0.0
1752859338715,88.0,8.0,-136.0,2.0,8.0,-7.0,0.1,0.7,-0.3,-0.28,-0.52,0.76,0.27,0.0,0.0,0.0
1752859338748,88.0,8.0,-135.0,1.0,8.0,-6.0,0.0,0.3,-0.6,-0.28,-0.52,0.76,0.27,0.0,0.0,0.0
1752859338788,86.0,9.0,-135.0,1.0,6.0,-7.0,-0.0,-0.5,0.1,-0.28,-0.52,0.76,0.27,0.0,0.0,0.0
1752859338941,86.0,9.0,-135.0,2.0,7.0,-7.0,0.2,0.1,-0.2,-0.28,-0.52,0.76,0.26,0.0,0.0,0.0
1752859338990,290.0,8.0,-136.0,2.0,7.0,-7.0,0.3,-0.1,0.1,-0.28,-0.53,0.76,0.26,0.0,0.0,0.0
1752859339137,290.0,8.0,-136.0,2.0,7.0,-7.0,-0.0,0.9,-0.8,-0.28,-0.53,0.76,0.26,0.0,0.0,0.0
1752859339176,88.0,8.0,-135.0,2.0,7.0,-7.0,0.1,0.1,-0.4,-0.28,-0.52,0.76,0.27,0.0,0.0,0.0
1752859339321,290.0,8.0,-137.0,1.0,7.0,-7.0,-0.3,0.3,0.6,-0.27,-0.53,0.76,0.27,0.0,0.0,0.0
1752859339361,290.0,8.0,-137.0,1.0,7.0,-7.0,0.1,0.3,0.2,-0.27,-0.53,0.76,0.26,0.0,0.0,0.0
1752859339407,291.0,9.0,-136.0,1.0,8.0,-7.0,-0.4,0.2,0.5,-0.28,-0.53,0.76,0.26,0.0,0.0,0.0
1752859339440,87.0,9.0,-135.0,1.0,7.0,-9.0,-0.2,0.6,-2.0,-0.28,-0.52,0.76,0.26,0.0,0.0,0.0
1752859339488,291.0,8.0,-136.0,2.0,7.0,-7.0,0.3,0.4,-0.2,-0.27,-0.52,0.76,0.27,0.0,0.0,0.0
1752859339839,290.0,8.0,-137.0,1.0,7.0,-7.0,0.6,0.1,0.0,-0.27,-0.53,0.76,0.27,0.0,0.0,0.0
1752859339872,290.0,8.0,-136.0,2.0,7.0,-7.0,0.5,0.1,0.0,-0.27,-0.53,0.76,0.26,0.0,0.0,0.0
1752859339922,290.0,8.0,-136.0,1.0,7.0,-7.0,0.1,0.1,0.0,-0.27,-0.53,0.76,0.26,0.0,0.0,0.0
1752859339963,291.0,8.0,-137.0,2.0,7.0,-7.0,0.1,-0.1,0.1,-0.27,-0.53,0.76,0.26,0.0,0.0,0.0
1752859340106,290.0,9.0,-137.0,2.0,7.0,-7.0,0.5,0.3,-0.1,-0.28,-0.52,0.76,0.25,0.0,0.0,0.0
1752859340140,290.0,9.0,-136.0,2.0,6.0,-7.0,0.5,-0.3,0.3,-0.28,-0.53,0.76,0.26,0.0,0.0,0.0
1752859340190,291.0,9.0,-137.0,2.0,7.0,-7.0,-0.1,0.0,0.5,-0.28,-0.53,0.76,0.25,0.0,0.0,0.0
1752859340239,291.0,9.0,-137.0,1.0,6.0,-7.0,-0.6,-0.4,0.0,-0.28,-0.52,0.77,0.25,0.0,0.0,0.0
1752859340472,292.0,9.0,-137.0,1.0,7.0,-7.0,-0.2,0.3,0.5,-0.28,-0.52,0.76,0.26,0.0,0.0,0.0
1752859340820,293.0,8.0,-138.0,1.0,6.0,-6.0,0.2,0.0,-0.1,-0.27,-0.52,0.77,0.25,0.0,0.0,0.0
1752859340870,293.0,8.0,-138.0,2.0,7.0,-7.0,0.3,-0.0,0.1,-0.26,-0.51,0.78,0.25,0.0,0.0,0.0
1752859341003,293.0,8.0,-138.0,1.0,7.0,-7.0,0.0,0.4,0.1,-0.26,-0.51,0.78,0.25,0.0,0.0,0.0
1752859341049,293.0,9.0,-138.0,2.0,6.0,-7.0,0.3,-0.0,0.1,-0.26,-0.51,0.78,0.25,0.0,0.0,0.0
1752859341087,293.0,9.0,-138.0,1.0,6.0,-7.0,-0.1,0.0,0.3,-0.26,-0.51,0.78,0.25,0.0,0.0,0.0
1752859341337,294.0,8.0,-139.0,1.0,6.0,-7.0,0.1,0.0,0.1,-0.26,-0.51,0.78,0.25,0.0,0.0,0.0
1752859342039,293.0,5.0,-140.0,1.0,6.0,-7.0,0.2,-0.3,0.9,-0.24,-0.5,0.79,0.26,0.0,0.0,0.0
1752859342079,291.0,3.0,-140.0,1.0,6.0,-7.0,0.6,0.1,0.5,-0.21,-0.53,0.78,0.27,0.0,0.0,0.0
1752859342222,286.0,-6.0,-137.0,1.0,8.0,-8.0,1.8,1.0,-0.9,-0.2,-0.54,0.77,0.28,0.0,0.0,0.0
1752859342272,286.0,-6.0,-137.0,1.0,6.0,-7.0,1.5,-0.7,-0.3,-0.17,-0.56,0.74,0.32,0.0,0.0,0.0
1752859342322,286.0,-6.0,-138.0,-1.0,7.0,-8.0,-0.1,1.3,-0.0,-0.17,-0.56,0.74,0.32,0.0,0.0,0.0
1752859342343,286.0,-6.0,-137.0,-2.0,4.0,-8.0,-1.3,-2.4,-0.7,-0.17,-0.56,0.75,0.32,0.0,0.0,0.0
1752859342391,125.0,-7.0,-134.0,-1.0,7.0,-7.0,0.4,-7.1,3.3,-0.18,-0.56,0.74,0.34,0.0,0.0,0.0
1752859342540,280.0,-7.0,-139.0,-2.0,6.0,-10.0,-7.9,-0.7,1.4,-0.18,-0.59,0.72,0.31,0.0,0.0,0.0
1752859342696,280.0,-6.0,-148.0,-1.0,6.0,-7.0,-0.3,0.8,1.2,-0.13,-0.62,0.73,0.26,0.0,0.0,0.0
1752859342736,282.0,-3.0,-152.0,-1.0,6.0,-8.0,-0.1,1.2,1.3,-0.13,-0.61,0.75,0.22,0.0,0.0,0.0
1752859342776,285.0,-0.0,-152.0,1.0,5.0,-7.0,0.8,0.2,1.9,-0.14,-0.59,0.77,0.19,0.0,0.0,0.0
1752859342822,288.0,2.0,-153.0,2.0,3.0,-8.0,1.5,-1.4,1.1,-0.15,-0.57,0.78,0.18,0.0,0.0,0.0
1752859342959,284.0,-4.0,-142.0,0.0,9.0,-10.0,1.2,2.9,-2.4,-0.16,-0.56,0.79,0.19,0.0,0.0,0.0
1752859343006,282.0,-5.0,-139.0,-1.0,9.0,-8.0,-0.0,1.9,-0.9,-0.18,-0.59,0.73,0.3,0.0,0.0,0.0
1752859343039,282.0,-4.0,-136.0,-1.0,6.0,-7.0,-0.3,-0.6,-0.0,-0.2,-0.58,0.72,0.31,0.0,0.0,0.0
1752859343293,282.0,-2.0,-135.0,-2.0,6.0,-6.0,0.5,0.6,0.4,-0.22,-0.58,0.72,0.31,0.0,0.0,0.0
1752859343327,288.0,5.0,-139.0,1.0,7.0,-6.0,0.1,0.5,1.0,-0.24,-0.55,0.76,0.25,0.0,0.0,0.0
1752859343377,288.0,6.0,-138.0,1.0,7.0,-6.0,0.1,0.4,1.2,-0.26,-0.55,0.75,0.25,0.0,0.0,0.0
1752859343523,284.0,5.0,-137.0,1.0,7.0,-8.0,-0.2,0.3,-0.5,-0.26,-0.56,0.75,0.25,0.0,0.0,0.0
1752859343675,288.0,6.0,-138.0,1.0,6.0,-8.0,0.3,-0.5,-0.7,-0.25,-0.55,0.75,0.26,0.0,0.0,0.0
1752859343708,288.0,6.0,-138.0,1.0,7.0,-8.0,0.0,0.3,-0.5,-0.25,-0.55,0.75,0.26,0.0,0.0,0.0
1752859343853,287.0,7.0,-138.0,1.0,6.0,-7.0,-0.3,-0.2,0.4,-0.26,-0.55,0.75,0.26,0.0,0.0,0.0
1752859343893,287.0,8.0,-138.0,1.0,7.0,-7.0,-0.2,0.1,0.5,-0.27,-0.55,0.75,0.24,0.0,0.0,0.0
1752859344246,288.0,7.0,-137.0,1.0,7.0,-7.0,-0.3,-0.8,0.2,-0.27,-0.55,0.75,0.24,0.0,0.0,0.0
1752859344280,288.0,7.0,-136.0,1.0,7.0,-7.0,-0.2,0.7,-0.4,-0.27,-0.54,0.75,0.26,0.0,0.0,0.0
1752859344427,288.0,7.0,-137.0,1.0,7.0,-8.0,0.1,0.3,-0.6,-0.27,-0.55,0.75,0.26,0.0,0.0,0.0
1752859344607,288.0,7.0,-137.0,1.0,7.0,-7.0,0.2,0.2,0.3,-0.27,-0.54,0.75,0.26,0.0,0.0,0.0
1752859344757,288.0,7.0,-138.0,1.0,7.0,-8.0,-0.1,0.4,-0.5,-0.27,-0.55,0.75,0.25,0.0,0.0,0.0
1752859344793,288.0,6.0,-138.0,1.0,7.0,-8.0,-0.2,0.0,-0.6,-0.26,-0.55,0.76,0.25,0.0,0.0,0.0
1752859345046,289.0,6.0,-137.0,1.0,7.0,-7.0,0.1,0.0,-0.2,-0.26,-0.54,0.76,0.25,0.0,0.0,0.0
1752859345088,289.0,6.0,-137.0,1.0,7.0,-7.0,-0.1,-0.3,0.1,-0.26,-0.54,0.75,0.26,0.0,0.0,0.0
1752859360772,42.0,-80.0,59.0,-14.0,-4.0,2.0,-4.4,-1.9,-0.0,0.69,0.14,0.66,-0.26,0.0,0.0,0.0
1752859361012,56.0,-73.0,40.0,-11.0,-2.0,5.0,-1.8,-1.6,0.5,0.69,0.18,0.6,-0.36,0.0,0.0,0.0
1752859361259,85.0,-72.0,-57.0,-15.0,-4.0,6.0,11.5,14.5,0.2,0.67,0.33,0.42,-0.51,0.0,0.0,0.0
1752859361309,87.0,-71.0,-86.0,-8.0,7.0,-2.0,0.5,4.0,-2.4,0.53,0.61,0.33,-0.5,0.0,0.0,0.0
1752859361361,88.0,-67.0,-107.0,-11.0,5.0,-3.0,-2.7,1.0,-0.4,0.48,0.68,0.31,-0.46,0.0,0.0,0.0
1752859361604,84.0,-59.0,-125.0,-3.0,4.0,-8.0,0.9,0.3,0.1,0.44,0.75,0.3,-0.4,0.0,0.0,0.0
1752859361650,161.0,-20.0,-154.0,-3.0,3.0,-10.0,0.9,0.5,-1.8,0.25,0.94,0.16,-0.15,0.0,0.0,0.0
1752859361693,163.0,-16.0,-158.0,-1.0,9.0,-10.0,1.4,5.0,-0.8,0.2,0.96,0.15,-0.11,0.0,0.0,0.0
1752859361730,164.0,-12.0,-160.0,-2.0,6.0,-12.0,-0.2,3.0,-3.6,0.18,0.97,0.14,-0.08,0.0,0.0,0.0
1752859361818,166.0,-3.0,-156.0,-1.0,1.0,-9.0,-0.4,-2.2,-0.0,0.21,0.97,0.12,-0.01,0.0,0.0,0.0
1752859361971,166.0,4.0,-164.0,1.0,0.0,-10.0,0.6,-1.8,-0.8,0.14,0.98,0.12,0.05,0.0,0.0,0.0
1752859362014,164.0,6.0,-165.0,2.0,4.0,-9.0,0.6,1.3,0.2,0.12,0.98,0.13,0.07,0.0,0.0,0.0
1752859362060,164.0,7.0,-166.0,3.0,4.0,-10.0,1.3,1.1,-0.2,0.11,0.98,0.14,0.08,0.0,0.0,0.0
1752859362205,163.0,11.0,-165.0,4.0,3.0,-13.0,2.3,0.0,-3.0,0.11,0.98,0.14,0.12,0.0,0.0,0.0
1752859362283,164.0,9.0,-166.0,3.0,3.0,-12.0,1.2,-0.7,-1.0,0.11,0.98,0.14,0.1,0.0,0.0,0.0
1752859362394,163.0,9.0,-162.0,0.0,0.0,0.0,-2.3,-2.1,9.0,0.09,0.98,0.13,0.09,0.0,0.0,0.0
1752859362433,163.0,7.0,-158.0,1.0,-5.0,-38.0,-0.1,-9.0,-29.6,0.17,0.97,0.14,0.09,0.0,0.0,0.0
1752859362572,159.0,7.0,-143.0,-1.0,2.0,0.0,0.2,-1.6,2.5,0.24,0.95,0.16,0.1,0.0,0.0,0.0
1752859362715,317.0,7.0,-135.0,1.0,6.0,-7.0,-0.0,-0.8,-0.1,0.33,0.92,0.18,0.13,0.0,0.0,0.0
1752859362857,318.0,7.0,-132.0,2.0,7.0,-7.0,0.4,-0.5,-0.2,0.37,0.9,0.19,0.15,0.0,0.0,0.0
1752859363004,317.0,7.0,-132.0,1.0,7.0,-7.0,0.2,-0.6,-0.2,0.38,0.89,0.2,0.15,0.0,0.0,0.0
1752859363054,316.0,7.0,-133.0,1.0,7.0,-7.0,0.2,-0.3,-0.3,0.38,0.89,0.19,0.15,0.0,0.0,0.0
1752859363195,317.0,7.0,-132.0,2.0,8.0,-7.0,0.8,0.3,-0.4,0.38,0.89,0.19,0.15,0.0,0.0,0.0
1752859363237,316.0,7.0,-132.0,1.0,7.0,-7.0,0.2,-0.4,-0.1,0.38,0.89,0.19,0.15,0.0,0.0,0.0
1752859363376,316.0,8.0,-132.0,2.0,7.0,-7.0,0.2,-0.7,-0.4,0.38,0.89,0.19,0.15,0.0,0.0,0.0
1752859363424,315.0,8.0,-131.0,2.0,6.0,-7.0,0.3,-0.3,0.0,0.38,0.89,0.18,0.16,0.0,0.0,0.0
1752859363466,315.0,8.0,-132.0,1.0,6.0,-6.0,-0.1,-1.0,0.7,0.38,0.89,0.18,0.16,0.0,0.0,0.0
1752859363514,315.0,8.0,-132.0,2.0,6.0,-6.0,0.1,-0.6,0.2,0.38,0.89,0.18,0.16,0.0,0.0,0.0
1752859363559,315.0,9.0,-132.0,2.0,6.0,-6.0,0.1,-0.8,0.1,0.38,0.89,0.18,0.16,0.0,0.0,0.0
1752859363605,315.0,9.0,-132.0,2.0,7.0,-7.0,0.1,-0.5,-0.0,0.38,0.89,0.18,0.16,0.0,0.0,0.0
1752859363757,315.0,9.0,-132.0,2.0,7.0,-7.0,0.1,-0.4,-0.0,0.38,0.89,0.18,0.16,0.0,0.0,0.0
1752859363797,314.0,9.0,-132.0,2.0,7.0,-7.0,0.2,0.0,-0.5,0.38,0.9,0.18,0.16,0.0,0.0,0.0
1752859364039,314.0,9.0,-132.0,2.0,7.0,-7.0,0.2,0.1,-0.4,0.38,0.9,0.18,0.16,0.0,0.0,0.0
1752859364079,314.0,9.0,-132.0,2.0,7.0,-7.0,0.2,0.1,-0.4,0.38,0.9,0.18,0.16,0.0,0.0,0.0
1752859364119,314.0,9.0,-132.0,2.0,7.0,-7.0,0.1,0.1,-0.4,0.38,0.9,0.18,0.16,0.0,0.0,0.0
1752859364270,314.0,9.0,-132.0,2.0,7.0,-7.0,0.1,0.1,-0.4,0.37,0.9,0.18,0.16,0.0,0.0,0.0
1752859364318,313.0,9.0,-133.0,2.0,7.0,-7.0,0.1,0.1,-0.4,0.37,0.9,0.18,0.16,0.0,0.0,0.0
1752859364488,313.0,9.0,-133.0,2.0,7.0,-7.0,0.1,0.1,-0.4,0.37,0.9,0.18,0.16,0.0,0.0,0.0
1752859364506,313.0,9.0,-133.0,2.0,7.0,-7.0,0.1,0.1,-0.4,0.37,0.9,0.18,0.16,0.0,0.0,0.0
1752859364756,313.0,9.0,-133.0,2.0,7.0,-7.0,0.1,0.1,-0.3,0.37,0.9,0.18,0.16,0.0,0.0,0.0
1752859364907,313.0,9.0,-133.0,2.0,7.0,-7.0,0.1,0.2,-0.3,0.37,0.9,0.18,0.16,0.0,0.0,0.0
1752859364950,313.0,9.0,-133.0,2.0,7.0,-7.0,0.1,0.2,-0.3,0.37,0.9,0.18,0.16,0.0,0.0,0.0
1752859365193,313.0,9.0,-133.0,2.0,7.0,-7.0,0.1,0.2,-0.3,0.37,0.9,0.18,0.16,0.0,0.0,0.0
1752859365231,313.0,9.0,-133.0,2.0,7.0,-7.0,0.1,0.1,-0.4,0.37,0.9,0.18,0.16,0.0,0.0,0.0
1752859365271,313.0,9.0,-133.0,2.0,7.0,-7.0,0.1,0.2,-0.4,0.37,0.9,0.18,0.16,0.0,0.0,0.0
1752859365418,313.0,9.0,-133.0,2.0,7.0,-7.0,0.1,0.1,-0.3,0.37,0.9,0.18,0.16,0.0,0.0,0.0
1752859365468,313.0,9.0,-133.0,2.0,7.0,-7.0,0.1,0.2,-0.3,0.37,0.9,0.18,0.16,0.0,0.0,0.0
1752859365519,313.0,9.0,-133.0,2.0,7.0,-7.0,0.1,0.1,-0.3,0.37,0.9,0.18,0.16,0.0,0.0,0.0
1752859365669,313.0,9.0,-133.0,2.0,7.0,-7.0,0.1,0.1,-0.3,0.37,0.9,0.18,0.16,0.0,0.0,0.0
1752859366487,313.0,9.0,-133.0,2.0,7.0,-7.0,0.1,0.2,-0.3,0.37,0.9,0.18,0.16,0.0,0.0,0.0
1752859366616,313.0,9.0,-133.0,2.0,7.0,-7.0,0.1,0.2,-0.3,0.37,0.9,0.18,0.16,0.0,0.0,0.0
1752859366763,313.0,9.0,-133.0,2.0,7.0,-7.0,0.1,0.2,-0.3,0.37,0.9,0.18,0.16,0.0,0.0,0.0
1752859367239,313.0,9.0,-133.0,2.0,7.0,-7.0,0.1,0.2,-0.3,0.37,0.9,0.18,0.16,0.0,0.0,0.0
1752859367277,313.0,9.0,-133.0,2.0,7.0,-7.0,0.1,0.2,-0.3,0.37,0.9,0.18,0.16,0.0,0.0,0.0
1752859367429,313.0,9.0,-133.0,2.0,7.0,-7.0,0.1,0.2,-0.3,0.37,0.9,0.18,0.16,0.0,0.0,0.0
1752859367574,313.0,9.0,-133.0,2.0,7.0,-7.0,0.1,0.2,-0.3,0.37,0.9,0.18,0.16,0.0,0.0,0.0
1752859367610,313.0,9.0,-133.0,2.0,7.0,-7.0,0.1,0.2,-0.3,0.37,0.9,0.18,0.16,0.0,0.0,0.0
1752859367751,313.0,9.0,-133.0,2.0,7.0,-7.0,0.1,0.2,-0.3,0.37,0.9,0.18,0.16,0.0,0.0,0.0
1752859367794,313.0,9.0,-133.0,2.0,7.0,-7.0,0.1,0.2,-0.3,0.37,0.9,0.18,0.16,0.0,0.0,0.0
1752859367827,313.0,9.0,-133.0,2.0,7.0,-7.0,0.1,0.2,-0.3,0.37,0.9,0.18,0.16,0.0,0.0,0.0
1752859367978,313.0,9.0,-133.0,2.0,7.0,-7.0,0.1,0.2,-0.3,0.37,0.9,0.18,0.16,0.0,0.0,0.0
1752859368328,313.0,9.0,-133.0,2.0,7.0,-7.0,0.1,0.2,-0.3,0.37,0.9,0.18,0.16,0.0,0.0,0.0
1752859368570,313.0,9.0,-133.0,2.0,7.0,-7.0,0.1,0.2,-0.3,0.37,0.9,0.18,0.16,0.0,0.0,0.0
1752859368611,313.0,9.0,-133.0,2.0,7.0,-7.0,0.1,0.2,-0.3,0.37,0.9,0.18,0.16,0.0,0.0,0.0
1752859368649,313.0,9.0,-133.0,2.0,7.0,-7.0,0.1,0.2,-0.3,0.37,0.9,0.18,0.16,0.0,0.0,0.0
1752859368687,313.0,9.0,-133.0,2.0,7.0,-7.0,0.1,0.2,-0.3,0.37,0.9,0.18,0.16,0.0,0.0,0.0
1752859368941,313.0,9.0,-133.0,2.0,7.0,-7.0,0.1,0.2,-0.3,0.37,0.9,0.18,0.16,0.0,0.0,0.0
1752859368988,313.0,9.0,-133.0,2.0,7.0,-7.0,0.1,0.1,-0.3,0.37,0.9,0.18,0.16,0.0,0.0,0.0
1752859369130,313.0,9.0,-133.0,2.0,7.0,-7.0,0.1,0.2,-0.3,0.37,0.9,0.18,0.16,0.0,0.0,0.0
1752859369297,313.0,9.0,-133.0,2.0,7.0,-7.0,0.1,0.2,-0.3,0.37,0.9,0.18,0.16,0.0,0.0,0.0
1752859369316,313.0,9.0,-133.0,2.0,7.0,-7.0,0.2,0.2,-0.3,0.37,0.9,0.18,0.16,0.0,0.0,0.0
1752859369447,313.0,9.0,-133.0,2.0,7.0,-7.0,0.1,0.1,-0.3,0.37,0.9,0.18,0.16,0.0,0.0,0.0
1752859369487,313.0,9.0,-133.0,2.0,7.0,-7.0,0.1,0.1,-0.3,0.37,0.9,0.18,0.16,0.0,0.0,0.0
1752859369530,313.0,9.0,-133.0,2.0,7.0,-7.0,0.1,0.1,-0.3,0.37,0.9,0.18,0.16,0.0,0.0,0.0
1752859369676,313.0,9.0,-133.0,2.0,7.0,-7.0,0.2,0.2,-0.3,0.37,0.9,0.18,0.16,0.0,0.0,0.0
1752859369825,313.0,9.0,-133.0,2.0,7.0,-7.0,0.1,0.2,-0.3,0.37,0.9,0.18,0.16,0.0,0.0,0.0
1752859369874,313.0,9.0,-133.0,2.0,7.0,-7.0,0.1,0.1,-0.3,0.37,0.9,0.18,0.16,0.0,0.0,0.0
1752859369922,313.0,9.0,-133.0,2.0,7.0,-7.0,0.1,0.1,-0.3,0.37,0.9,0.18,0.16,0.0,0.0,0.0
1752859369958,313.0,9.0,-133.0,2.0,7.0,-7.0,0.1,0.1,-0.3,0.37,0.9,0.18,0.16,0.0,0.0,0.0
1752859369992,313.0,9.0,-133.0,2.0,7.0,-7.0,0.1,0.2,-0.3,0.37,0.9,0.18,0.16,0.0,0.0,0.0
1752859370032,313.0,9.0,-133.0,2.0,7.0,-7.0,0.1,0.2,-0.3,0.37,0.9,0.18,0.16,0.0,0.0,0.0
1752859370092,313.0,9.0,-133.0,2.0,7.0,-7.0,0.1,0.2,-0.3,0.37,0.9,0.18,0.16,0.0,0.0,0.0
1752859370125,313.0,9.0,-133.0,2.0,7.0,-7.0,0.1,0.1,-0.2,0.37,0.9,0.18,0.16,0.0,0.0,0.0
1752859370175,313.0,9.0,-133.0,2.0,7.0,-7.0,0.1,0.2,-0.3,0.37,0.9,0.18,0.16,0.0,0.0,0.0
1752859370216,313.0,9.0,-133.0,2.0,7.0,-7.0,0.1,0.1,-0.3,0.37,0.9,0.18,0.16,0.0,0.0,0.0
1752859370375,313.0,9.0,-133.0,2.0,7.0,-7.0,0.1,0.2,-0.3,0.37,0.9,0.18,0.16,0.0,0.0,0.0
1752859370513,313.0,9.0,-133.0,2.0,7.0,-7.0,0.1,0.2,-0.3,0.37,0.9,0.18,0.16,0.0,0.0,0.0
1752859370543,313.0,9.0,-133.0,2.0,7.0,-7.0,0.1,0.2,-0.3,0.37,0.9,0.18,0.16,0.0,0.0,0.0
1752859370589,313.0,9.0,-133.0,2.0,7.0,-7.0,0.1,0.2,-0.3,0.37,0.9,0.18,0.16,0.0,0.0,0.0
1752859370640,313.0,9.0,-133.0,2.0,7.0,-7.0,0.1,0.2,-0.3,0.37,0.9,0.18,0.16,0.0,0.0,0.0
1752859370685,313.0,9.0,-133.0,2.0,7.0,-7.0,0.1,0.2,-0.3,0.37,0.9,0.18,0.16,0.0,0.0,0.0
1752859370732,313.0,9.0,-133.0,2.0,7.0,-7.0,0.1,0.2,-0.3,0.37,0.9,0.18,0.16,0.0,0.0,0.0
1752859370983,313.0,9.0,-133.0,2.0,7.0,-7.0,0.1,0.2,-0.3,0.37,0.9,0.18,0.16,0.0,0.0,0.0
1752859371033,312.0,9.0,-133.0,2.0,7.0,-7.0,0.1,0.2,-0.3,0.37,0.9,0.18,0.16,0.0,0.0,0.0
1752859371083,312.0,9.0,-133.0,2.0,7.0,-7.0,0.1,0.2,-0.3,0.37,0.9,0.18,0.16,0.0,0.0,0.0
1752859371133,312.0,9.0,-133.0,2.0,7.0,-7.0,0.1,0.2,-0.3,0.37,0.9,0.18,0.16,0.0,0.0,0.0
1752859371382,312.0,9.0,-133.0,2.0,7.0,-7.0,0.1,0.2,-0.3,0.37,0.9,0.18,0.16,0.0,0.0,0.0
1752859371533,312.0,9.0,-133.0,2.0,7.0,-7.0,0.1,0.2,-0.3,0.37,0.9,0.18,0.16,0.0,0.0,0.0
1752859371585,312.0,9.0,-133.0,2.0,7.0,-7.0,0.1,0.2,-0.3,0.37,0.9,0.18,0.16,0.0,0.0,0.0
1752859372203,312.0,9.0,-133.0,2.0,7.0,-7.0,0.1,0.2,-0.3,0.37,0.9,0.18,0.16,0.0,0.0,0.0
1752859372249,312.0,9.0,-133.0,2.0,7.0,-7.0,0.1,0.2,-0.3,0.37,0.9,0.18,0.16,0.0,0.0,0.0
1752859372592,312.0,9.0,-133.0,2.0,7.0,-7.0,0.1,0.2,-0.3,0.37,0.9,0.18,0.16,0.0,0.0,0.0
1752859372636,312.0,9.0,-133.0,2.0,7.0,-7.0,0.1,0.2,-0.3,0.37,0.9,0.18,0.16,0.0,0.0,0.0
1752859372879,312.0,9.0,-133.0,2.0,7.0,-7.0,0.1,0.2,-0.2,0.37,0.9,0.18,0.16,0.0,0.0,0.0
1752859372917,312.0,9.0,-133.0,2.0,7.0,-7.0,0.0,-0.2,-0.1,0.37,0.9,0.18,0.16,0.0,0.0,0.0
1752859372953,313.0,9.0,-133.0,2.0,7.0,-7.0,0.2,0.2,-0.3,0.37,0.9,0.18,0.16,0.0,0.0,0.0
1752859373104,313.0,9.0,-133.0,2.0,7.0,-7.0,0.1,0.3,-0.3,0.37,0.9,0.18,0.16,0.0,0.0,0.0
1752859373137,313.0,9.0,-133.0,2.0,7.0,-7.0,0.1,0.3,-0.2,0.37,0.9,0.18,0.16,0.0,0.0,0.0
1752859373388,313.0,9.0,-133.0,2.0,7.0,-7.0,0.1,0.2,-0.2,0.37,0.9,0.18,0.16,0.0,0.0,0.0
1752859373538,313.0,9.0,-133.0,2.0,7.0,-7.0,0.1,0.2,-0.2,0.37,0.9,0.18,0.16,0.0,0.0,0.0
1752859373689,313.0,9.0,-133.0,2.0,7.0,-7.0,0.1,0.3,-0.3,0.37,0.9,0.18,0.16,0.0,0.0,0.0
1752859373719,313.0,9.0,-133.0,2.0,8.0,-9.0,0.1,0.2,1.4,0.37,0.9,0.18,0.16,0.0,0.0,0.0
1752859373762,313.0,9.0,-133.0,1.0,7.0,-5.0,-0.0,-0.2,1.6,0.37,0.9,0.18,0.16,0.0,0.0,0.0
1752859373803,313.0,9.0,-133.0,2.0,4.0,-7.0,0.4,-3.2,-0.8,0.37,0.9,0.18,0.16,0.0,0.0,0.0
1752859373839,313.0,9.0,-133.0,0.0,10.0,-6.0,-1.1,2.9,0.7,0.37,0.9,0.18,0.16,0.0,0.0,0.0
1752859373991,312.0,9.0,-133.0,-1.0,9.0,-5.0,-2.8,1.9,1.5,0.37,0.9,0.19,0.16,0.0,0.0,0.0
1752859374122,312.0,9.0,-131.0,2.0,7.0,-7.0,0.1,0.2,-0.2,0.38,0.89,0.19,0.17,0.0,0.0,0.0
1752859374158,312.0,9.0,-131.0,2.0,8.0,-7.0,0.2,0.9,-0.1,0.38,0.89,0.19,0.17,0.0,0.0,0.0
1752859374208,313.0,9.0,-131.0,2.0,8.0,-7.0,0.0,0.1,-0.1,0.38,0.89,0.19,0.17,0.0,0.0,0.0
1752859374241,312.0,9.0,-131.0,2.0,8.0,-7.0,0.3,0.3,-0.2,0.38,0.89,0.19,0.17,0.0,0.0,0.0
1752859374502,312.0,9.0,-132.0,3.0,10.0,-1.0,0.7,1.2,3.4,0.38,0.89,0.19,0.17,0.0,0.0,0.0
1752859374531,306.0,12.0,-121.0,2.0,7.0,-5.0,-0.4,-1.7,0.0,0.45,0.84,0.2,0.23,0.0,0.0,0.0
1752859374577,307.0,12.0,-118.0,3.0,7.0,-5.0,0.8,-0.5,0.0,0.46,0.83,0.2,0.23,0.0,0.0,0.0
1752859374619,307.0,11.0,-118.0,2.0,10.0,-7.0,0.3,1.6,-2.0,0.47,0.83,0.2,0.23,0.0,0.0,0.0
1752859374668,307.0,11.0,-117.0,3.0,7.0,-7.0,-0.5,1.2,0.3,0.47,0.83,0.2,0.23,0.0,0.0,0.0
1752859374707,306.0,11.0,-116.0,1.0,10.0,-2.0,-1.2,1.5,1.8,0.48,0.82,0.21,0.24,0.0,0.0,0.0
1752859374742,306.0,11.0,-115.0,1.0,10.0,-3.0,-0.7,1.3,1.3,0.48,0.82,0.21,0.24,0.0,0.0,0.0
1752859374899,309.0,11.0,-112.0,2.0,7.0,-5.0,1.7,-2.2,-1.1,0.49,0.81,0.21,0.25,0.0,0.0,0.0
1752859374937,309.0,11.0,-112.0,2.0,9.0,-4.0,0.5,0.3,-0.3,0.51,0.8,0.2,0.24,0.0,0.0,0.0
1752859374985,309.0,11.0,-112.0,3.0,9.0,-4.0,-0.1,-0.4,-0.5,0.51,0.8,0.2,0.24,0.0,0.0,0.0
1752859375022,310.0,10.0,-111.0,2.0,9.0,-4.0,-0.4,-0.3,-0.5,0.51,0.8,0.2,0.24,0.0,0.0,0.0
1752859375070,311.0,10.0,-111.0,1.0,9.0,-4.0,-0.4,0.2,-0.9,0.52,0.8,0.2,0.24,0.0,0.0,0.0
1752859375107,311.0,10.0,-111.0,2.0,9.0,-3.0,-0.1,0.4,0.4,0.52,0.8,0.2,0.24,0.0,0.0,0.0
1752859375141,311.0,10.0,-111.0,2.0,9.0,-4.0,-0.1,0.2,-0.8,0.52,0.8,0.2,0.24,0.0,0.0,0.0
1752859375191,311.0,10.0,-111.0,2.0,9.0,-4.0,0.7,0.2,-1.0,0.52,0.8,0.2,0.24,0.0,0.0,0.0
1752859375340,310.0,10.0,-109.0,2.0,10.0,-2.0,0.0,0.9,0.0,0.52,0.79,0.21,0.24,0.0,0.0,0.0
1752859375374,310.0,10.0,-109.0,2.0,9.0,-4.0,0.3,-0.5,-0.2,0.53,0.78,0.21,0.25,0.0,0.0,0.0
1752859375408,310.0,10.0,-109.0,2.0,8.0,-4.0,0.1,-1.0,-1.0,0.53,0.78,0.21,0.25,0.0,0.0,0.0
1752859375663,308.0,9.0,-110.0,2.0,9.0,-4.0,0.0,0.3,-0.6,0.53,0.78,0.21,0.25,0.0,0.0,0.0
1752859375695,308.0,9.0,-110.0,1.0,9.0,-4.0,-0.3,-0.1,-0.4,0.52,0.79,0.23,0.25,0.0,0.0,0.0
1752859375845,311.0,8.0,-111.0,2.0,10.0,-3.0,0.1,-0.3,0.3,0.52,0.79,0.23,0.25,0.0,0.0,0.0
1752859375901,311.0,8.0,-111.0,2.0,8.0,-5.0,0.0,-1.8,-1.1,0.52,0.79,0.22,0.23,0.0,0.0,0.0
1752859375934,311.0,8.0,-111.0,2.0,10.0,-4.0,0.4,0.7,-0.8,0.51,0.79,0.22,0.23,0.0,0.0,0.0
1752859375986,311.0,8.0,-112.0,1.0,9.0,-4.0,0.2,0.3,-0.1,0.51,0.8,0.22,0.23,0.0,0.0,0.0
1752859376025,313.0,7.0,-112.0,-0.0,7.0,-4.0,0.7,1.0,-0.6,0.51,0.79,0.23,0.23,0.0,0.0,0.0
1752859376063,315.0,5.0,-113.0,1.0,9.0,-3.0,0.3,0.2,-0.2,0.51,0.8,0.24,0.21,0.0,0.0,0.0
1752859376101,314.0,6.0,-113.0,1.0,9.0,-4.0,0.4,0.5,-0.6,0.51,0.8,0.24,0.22,0.0,0.0,0.0
1752859376154,314.0,6.0,-113.0,1.0,9.0,-4.0,-0.0,-0.3,-0.3,0.51,0.8,0.24,0.22,0.0,0.0,0.0
1752859376284,310.0,8.0,-111.0,1.0,9.0,-4.0,0.1,0.3,-0.2,0.51,0.79,0.24,0.22,0.0,0.0,0.0
1752859376994,314.0,6.0,-113.0,1.0,9.0,-4.0,0.0,0.2,-0.2,0.51,0.8,0.24,0.22,0.0,0.0,0.0
1752859377138,314.0,6.0,-113.0,1.0,9.0,-4.0,-0.0,0.1,0.2,0.51,0.8,0.24,0.22,0.0,0.0,0.0
1752859377277,315.0,6.0,-113.0,1.0,9.0,-4.0,0.0,0.1,-0.1,0.51,0.8,0.24,0.22,0.0,0.0,0.0
1752859377514,315.0,6.0,-113.0,1.0,9.0,-4.0,0.0,0.1,-0.2,0.51,0.8,0.24,0.21,0.0,0.0,0.0
1752859377663,315.0,6.0,-113.0,1.0,9.0,-4.0,0.0,0.1,-0.1,0.51,0.8,0.24,0.21,0.0,0.0,0.0
1752859377696,315.0,6.0,-113.0,1.0,9.0,-4.0,0.0,0.1,-0.2,0.51,0.8,0.24,0.21,0.0,0.0,0.0
1752859377746,315.0,6.0,-113.0,1.0,9.0,-4.0,0.0,0.1,-0.2,0.51,0.8,0.24,0.21,0.0,0.0,0.0
1752859377896,315.0,6.0,-113.0,1.0,9.0,-4.0,-0.0,0.1,-0.1,0.51,0.8,0.24,0.21,0.0,0.0,0.0
1752859378046,315.0,6.0,-113.0,1.0,9.0,-4.0,-0.0,-0.0,0.1,0.51,0.8,0.24,0.21,0.0,0.0,0.0
1752859378086,315.0,5.0,-113.0,1.0,9.0,-4.0,0.0,0.1,-0.2,0.51,0.8,0.24,0.21,0.0,0.0,0.0
1752859378331,315.0,5.0,-113.0,1.0,9.0,-4.0,-0.0,0.1,-0.2,0.51,0.8,0.24,0.21,0.0,0.0,0.0
1752859378567,315.0,5.0,-113.0,1.0,9.0,-4.0,-0.0,0.1,-0.1,0.51,0.8,0.24,0.21,0.0,0.0,0.0
1752859378707,315.0,5.0,-113.0,1.0,9.0,-4.0,0.0,0.1,-0.1,0.51,0.8,0.24,0.21,0.0,0.0,0.0
1752859378747,315.0,5.0,-113.0,1.0,9.0,-4.0,-0.0,0.1,-0.1,0.51,0.8,0.24,0.21,0.0,0.0,0.0
1752859378892,315.0,5.0,-113.0,1.0,9.0,-4.0,0.0,0.1,-0.1,0.51,0.8,0.24,0.21,0.0,0.0,0.0
1752859379050,315.0,5.0,-113.0,1.0,9.0,-4.0,-0.0,0.1,-0.1,0.51,0.8,0.24,0.21,0.0,0.0,0.0
1752859379092,315.0,5.0,-114.0,1.0,9.0,-4.0,-0.0,0.1,-0.1,0.51,0.8,0.24,0.21,0.0,0.0,0.0
1752859379243,315.0,5.0,-114.0,1.0,9.0,-4.0,-0.0,0.1,-0.2,0.51,0.8,0.24,0.21,0.0,0.0,0.0
1752859379291,315.0,5.0,-114.0,1.0,9.0,-4.0,-0.0,0.1,-0.1,0.51,0.8,0.24,0.21,0.0,0.0,0.0
1752859379316,315.0,5.0,-114.0,1.0,9.0,-4.0,-0.0,0.1,-0.1,0.51,0.8,0.24,0.21,0.0,0.0,0.0
1752859379357,315.0,5.0,-114.0,1.0,9.0,-4.0,-0.0,0.1,-0.2,0.51,0.8,0.24,0.21,0.0,0.0,0.0
1752859379414,315.0,5.0,-114.0,1.0,9.0,-4.0,0.0,0.1,-0.2,0.51,0.8,0.24,0.21,0.0,0.0,0.0
1752859379449,315.0,5.0,-114.0,1.0,9.0,-4.0,0.0,0.1,-0.2,0.51,0.8,0.24,0.21,0.0,0.0,0.0
1752859379701,315.0,5.0,-114.0,1.0,9.0,-4.0,-0.0,0.1,-0.1,0.51,0.8,0.24,0.21,0.0,0.0,0.0
1752859379849,315.0,5.0,-114.0,1.0,9.0,-4.0,-0.0,0.1,-0.1,0.51,0.8,0.24,0.21,0.0,0.0,0.0
1752859379885,315.0,5.0,-114.0,1.0,9.0,-4.0,-0.0,0.1,-0.1,0.51,0.8,0.24,0.21,0.0,0.0,0.0
1752859379919,315.0,5.0,-114.0,1.0,9.0,-4.0,-0.0,0.1,-0.1,0.51,0.8,0.24,0.21,0.0,0.0,0.0
1752859379966,315.0,5.0,-114.0,1.0,9.0,-4.0,-0.0,0.1,-0.1,0.51,0.8,0.24,0.21,0.0,0.0,0.0
1752859380002,315.0,5.0,-114.0,1.0,9.0,-4.0,-0.0,0.1,-0.1,0.51,0.8,0.24,0.21,0.0,0.0,0.0
1752859380253,315.0,5.0,-114.0,1.0,9.0,-4.0,-0.0,0.1,-0.1,0.51,0.8,0.24,0.21,0.0,0.0,0.0
1752859380590,315.0,5.0,-114.0,1.0,9.0,-4.0,-0.0,0.1,-0.1,0.51,0.8,0.24,0.21,0.0,0.0,0.0
1752859396159,0.0,7.0,-122.0,1.0,8.0,-5.0,0.0,-0.0,-0.0,0.49,0.86,-0.12,-0.0,0.0,0.0,0.0
1752859396198,0.0,7.0,-122.0,1.0,8.0,-5.0,0.0,-0.0,0.0,0.49,0.86,-0.12,-0.0,0.0,0.0,0.0
1752859396343,0.0,7.0,-122.0,1.0,8.0,-5.0,0.0,-0.0,0.0,0.49,0.86,-0.12,-0.0,0.0,0.0,0.0
1752859396389,0.0,7.0,-122.0,1.0,8.0,-5.0,0.0,-0.1,0.0,0.49,0.86,-0.12,-0.0,0.0,0.0,0.0
1752859396437,0.0,7.0,-122.0,1.0,8.0,-5.0,0.0,-0.1,0.0,0.49,0.86,-0.12,-0.0,0.0,0.0,0.0
1752859396481,0.0,7.0,-122.0,1.0,8.0,-5.0,-0.0,-0.1,0.0,0.49,0.86,-0.12,-0.0,0.0,0.0,0.0
1752859396718,0.0,7.0,-122.0,1.0,8.0,-5.0,-0.0,-0.0,-0.0,0.49,0.86,-0.12,-0.0,0.0,0.0,0.0
1752859396758,1.0,6.0,-121.0,1.0,8.0,-5.0,0.0,-0.0,0.0,0.49,0.86,-0.12,-0.0,0.0,0.0,0.0
1752859396802,1.0,6.0,-121.0,1.0,8.0,-5.0,0.0,0.0,0.0,0.49,0.86,-0.12,-0.0,0.0,0.0,0.0
1752859396846,1.0,6.0,-121.0,1.0,9.0,-5.0,-0.1,0.1,0.1,0.49,0.86,-0.12,-0.0,0.0,0.0,0.0
1752859396891,1.0,6.0,-121.0,1.0,8.0,-5.0,0.0,-0.0,0.0,0.5,0.86,-0.12,-0.01,0.0,0.0,0.0
1752859397038,2.0,5.0,-119.0,1.0,8.0,-5.0,-0.1,-0.1,0.0,0.5,0.86,-0.11,-0.01,0.0,0.0,0.0
1752859397079,3.0,5.0,-119.0,1.0,8.0,-5.0,0.0,-0.0,0.0,0.51,0.85,-0.11,-0.01,0.0,0.0,0.0
1752859397123,3.0,5.0,-119.0,1.0,9.0,-5.0,0.0,-0.0,0.1,0.51,0.85,-0.11,-0.01,0.0,0.0,0.0
1752859397167,3.0,5.0,-119.0,1.0,9.0,-5.0,-0.0,-0.1,0.1,0.51,0.85,-0.11,-0.01,0.0,0.0,0.0
1752859397309,3.0,5.0,-119.0,1.0,8.0,-5.0,0.0,-0.0,0.1,0.51,0.85,-0.11,-0.01,0.0,0.0,0.0
1752859397358,3.0,5.0,-120.0,1.0,8.0,-5.0,0.0,-0.0,0.1,0.5,0.86,-0.11,-0.01,0.0,0.0,0.0
1752859397506,2.0,5.0,-120.0,1.0,8.0,-5.0,-0.0,0.0,0.0,0.5,0.86,-0.11,-0.01,0.0,0.0,0.0
1752859397551,2.0,6.0,-120.0,1.0,8.0,-5.0,-0.0,-0.1,0.1,0.5,0.86,-0.11,-0.01,0.0,0.0,0.0
