timestamp,heading,roll,pitch,acc_x,acc_y,acc_z,quat_w,quat_x,quat_y,quat_z,mag_x,mag_y,mag_z
1752615799052,0.0,0.0,0.0,0.0,0.0,9.81,1.0,0.0,0.0,0.0,0.0,0.0,0.0
1752615799172,192.13,1.69,-163.69,0.0,0.0,9.81,1.0,0.0,0.0,0.0,0.0,0.0,0.0
1752615799386,192.13,1.63,-163.63,0.0,0.0,9.81,1.0,0.0,0.0,0.0,0.0,0.0,0.0
1752615799511,192.13,1.63,-163.63,0.0,0.0,9.81,1.0,0.0,0.0,0.0,0.0,0.0,0.0
1752615799631,192.13,1.63,-163.56,0.0,0.0,9.81,1.0,0.0,0.0,0.0,0.0,0.0,0.0
1752615799763,192.13,1.63,-163.56,0.0,0.0,9.81,1.0,0.0,0.0,0.0,0.0,0.0,0.0
1752615800000,192.13,1.63,-163.5,0.0,0.0,9.81,1.0,0.0,0.0,0.0,0.0,0.0,0.0
1752615800119,192.13,1.63,-163.5,0.0,0.0,9.81,1.0,0.0,0.0,0.0,0.0,0.0,0.0
1752615800242,192.13,1.63,-163.5,0.0,0.0,9.81,1.0,0.0,0.0,0.0,0.0,0.0,0.0
1752615800356,192.13,1.63,-163.5,0.0,0.0,9.81,1.0,0.0,0.0,0.0,0.0,0.0,0.0
1752615800480,192.13,1.63,-163.5,0.0,0.0,9.81,1.0,0.0,0.0,0.0,0.0,0.0,0.0
1752615800604,192.13,1.63,-163.5,0.0,0.0,9.81,1.0,0.0,0.0,0.0,0.0,0.0,0.0
1752615800722,192.13,1.63,-163.5,0.0,0.0,9.81,1.0,0.0,0.0,0.0,0.0,0.0,0.0
1752615800946,192.13,1.63,-163.5,0.0,0.0,9.81,1.0,0.0,0.0,0.0,0.0,0.0,0.0
1752615801063,192.13,1.63,-163.5,0.0,0.0,9.81,1.0,0.0,0.0,0.0,0.0,0.0,0.0
1752615801183,192.13,1.63,-163.5,0.0,0.0,9.81,1.0,0.0,0.0,0.0,0.0,0.0,0.0
1752615801308,192.13,1.63,-163.44,0.0,0.0,9.81,1.0,0.0,0.0,0.0,0.0,0.0,0.0
1752615801425,192.13,1.63,-163.5,0.0,0.0,9.81,1.0,0.0,0.0,0.0,0.0,0.0,0.0
1752615801549,192.13,1.63,-163.44,0.0,0.0,9.81,1.0,0.0,0.0,0.0,0.0,0.0,0.0
1752615801670,192.13,1.63,-163.44,0.0,0.0,9.81,1.0,0.0,0.0,0.0,0.0,0.0,0.0
1752615801788,192.13,1.63,-163.44,0.0,0.0,9.81,1.0,0.0,0.0,0.0,0.0,0.0,0.0
1752615801919,192.13,1.63,-163.44,0.0,0.0,9.81,1.0,0.0,0.0,0.0,0.0,0.0,0.0
1752615802039,192.13,1.63,-163.44,0.0,0.0,9.81,1.0,0.0,0.0,0.0,0.0,0.0,0.0
1752615802157,192.13,1.63,-163.44,0.0,0.0,9.81,1.0,0.0,0.0,0.0,0.0,0.0,0.0
1752615802281,192.13,1.63,-163.44,0.0,0.0,9.81,1.0,0.0,0.0,0.0,0.0,0.0,0.0
1752615802404,192.13,1.63,-163.44,0.0,0.0,9.81,1.0,0.0,0.0,0.0,0.0,0.0,0.0
1752615802527,192.13,1.63,-163.44,0.0,0.0,9.81,1.0,0.0,0.0,0.0,0.0,0.0,0.0
1752615802641,192.13,1.63,-163.44,0.0,0.0,9.81,1.0,0.0,0.0,0.0,0.0,0.0,0.0
1752615802768,192.13,1.63,-163.44,0.0,0.0,9.81,1.0,0.0,0.0,0.0,0.0,0.0,0.0
1752615802887,192.13,1.63,-163.38,0.0,0.0,9.81,1.0,0.0,0.0,0.0,0.0,0.0,0.0
1752615803220,192.13,1.63,-163.38,0.0,0.0,9.81,1.0,0.0,0.0,0.0,0.0,0.0,0.0
1752615803337,192.13,1.63,-163.38,0.0,0.0,9.81,1.0,0.0,0.0,0.0,0.0,0.0,0.0
1752615803460,192.13,1.63,-163.38,0.0,0.0,9.81,1.0,0.0,0.0,0.0,0.0,0.0,0.0
1752615803576,192.13,1.63,-163.38,0.0,0.0,9.81,1.0,0.0,0.0,0.0,0.0,0.0,0.0
1752615803695,192.13,1.63,-163.38,0.0,0.0,9.81,1.0,0.0,0.0,0.0,0.0,0.0,0.0
1752615803915,192.13,1.63,-163.44,0.0,0.0,9.81,1.0,0.0,0.0,0.0,0.0,0.0,0.0
1752615804034,198.5,0.44,-162.75,0.0,0.0,9.81,1.0,0.0,0.0,0.0,0.0,0.0,0.0
1752615804171,197.69,0.44,-163.0,0.0,0.0,9.81,1.0,0.0,0.0,0.0,0.0,0.0,0.0
1752615804285,206.81,7.75,-153.94,0.0,0.0,9.81,1.0,0.0,0.0,0.0,0.0,0.0,0.0
1752615804415,209.0,8.0,-162.13,0.0,0.0,9.81,1.0,0.0,0.0,0.0,0.0,0.0,0.0
1752615804533,208.06,-8.0,-170.94,0.0,0.0,9.81,1.0,0.0,0.0,0.0,0.0,0.0,0.0
1752615804650,208.19,-19.56,177.81,0.0,0.0,9.81,1.0,0.0,0.0,0.0,0.0,0.0,0.0
1752615804787,214.38,-26.19,-178.81,0.0,0.0,9.81,1.0,0.0,0.0,0.0,0.0,0.0,0.0
1752615804895,219.81,-24.38,178.13,0.0,0.0,9.81,1.0,0.0,0.0,0.0,0.0,0.0,0.0
1752615805019,213.94,-24.19,161.13,0.0,0.0,9.81,1.0,0.0,0.0,0.0,0.0,0.0,0.0
1752615805339,275.81,-29.38,100.38,0.0,0.0,9.81,1.0,0.0,0.0,0.0,0.0,0.0,0.0
1752615805470,245.94,-56.25,105.81,0.0,0.0,9.81,1.0,0.0,0.0,0.0,0.0,0.0,0.0
1752615805588,233.44,-66.19,145.38,0.0,0.0,9.81,1.0,0.0,0.0,0.0,0.0,0.0,0.0
1752615805806,231.31,-23.88,171.44,0.0,0.0,9.81,1.0,0.0,0.0,0.0,0.0,0.0,0.0
1752615806033,239.19,3.94,162.25,0.0,0.0,9.81,1.0,0.0,0.0,0.0,0.0,0.0,0.0
1752615806249,246.44,5.94,161.5,0.0,0.0,9.81,1.0,0.0,0.0,0.0,0.0,0.0,0.0
1752615806473,263.0,4.0,154.56,0.0,0.0,9.81,1.0,0.0,0.0,0.0,0.0,0.0,0.0
1752615806594,260.81,-1.44,154.69,0.0,0.0,9.81,1.0,0.0,0.0,0.0,0.0,0.0,0.0
1752615806712,260.94,-1.38,154.5,0.0,0.0,9.81,1.0,0.0,0.0,0.0,0.0,0.0,0.0
1752615806941,257.94,-10.0,162.13,0.0,0.0,9.81,1.0,0.0,0.0,0.0,0.0,0.0,0.0
1752615807061,255.25,-15.13,165.69,0.0,0.0,9.81,1.0,0.0,0.0,0.0,0.0,0.0,0.0
1752615807184,254.56,-25.13,171.06,0.0,0.0,9.81,1.0,0.0,0.0,0.0,0.0,0.0,0.0
1752615807311,254.63,-39.69,175.69,0.0,0.0,9.81,1.0,0.0,0.0,0.0,0.0,0.0,0.0
1752615807441,256.69,-49.5,178.56,0.0,0.0,9.81,1.0,0.0,0.0,0.0,0.0,0.0,0.0
1752615807647,249.5,-69.19,-171.88,0.0,0.0,9.81,1.0,0.0,0.0,0.0,0.0,0.0,0.0
1752615807771,248.0,-72.44,-168.38,0.0,0.0,9.81,1.0,0.0,0.0,0.0,0.0,0.0,0.0
1752615807998,246.5,-72.94,-165.75,0.0,0.0,9.81,1.0,0.0,0.0,0.0,0.0,0.0,0.0
1752615808133,246.5,-72.38,-166.19,0.0,0.0,9.81,1.0,0.0,0.0,0.0,0.0,0.0,0.0
1752615808351,253.44,-60.56,175.63,0.0,0.0,9.81,1.0,0.0,0.0,0.0,0.0,0.0,0.0
1752615808465,263.81,-47.25,168.75,0.0,0.0,9.81,1.0,0.0,0.0,0.0,0.0,0.0,0.0
1752615808587,238.56,-36.81,164.56,0.0,0.0,9.81,1.0,0.0,0.0,0.0,0.0,0.0,0.0
1752615808704,233.06,-20.44,162.0,0.0,0.0,9.81,1.0,0.0,0.0,0.0,0.0,0.0,0.0
1752615808922,38.06,-3.63,120.31,0.0,0.0,9.81,1.0,0.0,0.0,0.0,0.0,0.0,0.0
1752615809040,16.25,-21.63,83.5,0.0,0.0,9.81,1.0,0.0,0.0,0.0,0.0,0.0,0.0
1752615809165,20.88,-31.25,52.94,0.0,0.0,9.81,1.0,0.0,0.0,0.0,0.0,0.0,0.0
1752615809288,11.44,-26.0,25.13,0.0,0.0,9.81,1.0,0.0,0.0,0.0,0.0,0.0,0.0
1752615809405,356.19,-15.5,5.88,0.0,0.0,9.81,1.0,0.0,0.0,0.0,0.0,0.0,0.0
1752615809526,346.31,-3.56,-6.5,0.0,0.0,9.81,1.0,0.0,0.0,0.0,0.0,0.0,0.0
1752615809651,338.56,3.69,-4.44,0.0,0.0,9.81,1.0,0.0,0.0,0.0,0.0,0.0,0.0
1752615809769,336.38,8.69,1.19,0.0,0.0,9.81,1.0,0.0,0.0,0.0,0.0,0.0,0.0
1752615809892,336.63,4.88,5.63,0.0,0.0,9.81,1.0,0.0,0.0,0.0,0.0,0.0,0.0
1752615810013,337.25,6.81,5.44,0.0,0.0,9.81,1.0,0.0,0.0,0.0,0.0,0.0,0.0
1752615810131,338.88,8.13,5.81,0.0,0.0,9.81,1.0,0.0,0.0,0.0,0.0,0.0,0.0
1752615810350,341.13,10.25,5.69,0.0,0.0,9.81,1.0,0.0,0.0,0.0,0.0,0.0,0.0
1752615810480,341.56,10.88,4.94,0.0,0.0,9.81,1.0,0.0,0.0,0.0,0.0,0.0,0.0
1752615810600,334.13,9.25,2.06,0.0,0.0,9.81,1.0,0.0,0.0,0.0,0.0,0.0,0.0
1752615810719,321.25,6.19,1.5,0.0,0.0,9.81,1.0,0.0,0.0,0.0,0.0,0.0,0.0
1752615810853,309.94,3.94,-1.63,0.0,0.0,9.81,1.0,0.0,0.0,0.0,0.0,0.0,0.0
1752615810971,296.75,1.81,-3.81,0.0,0.0,9.81,1.0,0.0,0.0,0.0,0.0,0.0,0.0
1752615811086,284.19,1.25,-2.44,0.0,0.0,9.81,1.0,0.0,0.0,0.0,0.0,0.0,0.0
1752615811309,266.69,-0.88,1.5,0.0,0.0,9.81,1.0,0.0,0.0,0.0,0.0,0.0,0.0
1752615811439,262.31,-2.25,-0.5,0.0,0.0,9.81,1.0,0.0,0.0,0.0,0.0,0.0,0.0
1752615811563,258.75,-3.19,-3.44,0.0,0.0,9.81,1.0,0.0,0.0,0.0,0.0,0.0,0.0
1752615811680,259.5,-3.5,-5.06,0.0,0.0,9.81,1.0,0.0,0.0,0.0,0.0,0.0,0.0
1752615811803,264.63,-4.31,-4.56,0.0,0.0,9.81,1.0,0.0,0.0,0.0,0.0,0.0,0.0
1752615811928,296.31,-7.38,-2.63,0.0,0.0,9.81,1.0,0.0,0.0,0.0,0.0,0.0,0.0
1752615812044,319.44,-3.69,6.5,0.0,0.0,9.81,1.0,0.0,0.0,0.0,0.0,0.0,0.0
1752615812167,343.13,-0.13,15.38,0.0,0.0,9.81,1.0,0.0,0.0,0.0,0.0,0.0,0.0
1752615812298,358.13,-3.94,27.44,0.0,0.0,9.81,1.0,0.0,0.0,0.0,0.0,0.0,0.0
1752615812421,3.69,-15.25,40.56,0.0,0.0,9.81,1.0,0.0,0.0,0.0,0.0,0.0,0.0
1752615812543,10.5,-22.94,55.56,0.0,0.0,9.81,1.0,0.0,0.0,0.0,0.0,0.0,0.0
1752615812661,31.75,-17.5,72.25,0.0,0.0,9.81,1.0,0.0,0.0,0.0,0.0,0.0,0.0
1752615812787,38.56,-14.81,81.69,0.0,0.0,9.81,1.0,0.0,0.0,0.0,0.0,0.0,0.0
1752615812904,34.63,-15.75,85.88,0.0,0.0,9.81,1.0,0.0,0.0,0.0,0.0,0.0,0.0
1752615813022,34.88,-14.88,87.44,0.0,0.0,9.81,1.0,0.0,0.0,0.0,0.0,0.0,0.0
1752615813156,33.13,-15.5,88.63,0.0,0.0,9.81,1.0,0.0,0.0,0.0,0.0,0.0,0.0
1752615813271,32.69,-15.69,90.0,0.0,0.0,9.81,1.0,0.0,0.0,0.0,0.0,0.0,0.0
1752615813399,34.88,-14.0,92.63,0.0,0.0,9.81,1.0,0.0,0.0,0.0,0.0,0.0,0.0
1752615813523,38.19,-11.5,94.75,0.0,0.0,9.81,1.0,0.0,0.0,0.0,0.0,0.0,0.0
1752615813641,43.44,-8.69,102.0,0.0,0.0,9.81,1.0,0.0,0.0,0.0,0.0,0.0,0.0
1752615813761,40.94,-10.19,103.38,0.0,0.0,9.81,1.0,0.0,0.0,0.0,0.0,0.0,0.0
1752615813886,37.88,-13.19,104.13,0.0,0.0,9.81,1.0,0.0,0.0,0.0,0.0,0.0,0.0
1752615814012,27.81,-20.06,105.38,0.0,0.0,9.81,1.0,0.0,0.0,0.0,0.0,0.0,0.0
1752615814129,33.81,-17.44,106.56,0.0,0.0,9.81,1.0,0.0,0.0,0.0,0.0,0.0,0.0
1752615814260,38.0,-14.69,104.94,0.0,0.0,9.81,1.0,0.0,0.0,0.0,0.0,0.0,0.0
1752615814376,35.63,-22.31,107.75,0.0,0.0,9.81,1.0,0.0,0.0,0.0,0.0,0.0,0.0
1752615814504,28.56,-24.44,106.94,0.0,0.0,9.81,1.0,0.0,0.0,0.0,0.0,0.0,0.0
1752615814628,10.56,-28.94,102.44,0.0,0.0,9.81,1.0,0.0,0.0,0.0,0.0,0.0,0.0
1752615814765,5.63,-27.06,105.0,0.0,0.0,9.81,1.0,0.0,0.0,0.0,0.0,0.0,0.0
1752615814878,355.38,-27.69,113.44,0.0,0.0,9.81,1.0,0.0,0.0,0.0,0.0,0.0,0.0
1752615814999,359.13,-23.63,119.75,0.0,0.0,9.81,1.0,0.0,0.0,0.0,0.0,0.0,0.0
1752615815115,23.56,-12.13,115.19,0.0,0.0,9.81,1.0,0.0,0.0,0.0,0.0,0.0,0.0
1752615815249,29.44,-8.31,109.0,0.0,0.0,9.81,1.0,0.0,0.0,0.0,0.0,0.0,0.0
1752615815380,24.0,-5.69,101.56,0.0,0.0,9.81,1.0,0.0,0.0,0.0,0.0,0.0,0.0
1752615815500,20.31,-2.13,83.94,0.0,0.0,9.81,1.0,0.0,0.0,0.0,0.0,0.0,0.0
1752615815618,18.63,0.25,71.13,0.0,0.0,9.81,1.0,0.0,0.0,0.0,0.0,0.0,0.0
1752615815743,20.69,6.13,72.88,0.0,0.0,9.81,1.0,0.0,0.0,0.0,0.0,0.0,0.0
1752615815868,15.38,0.56,77.75,0.0,0.0,9.81,1.0,0.0,0.0,0.0,0.0,0.0,0.0
1752615815981,16.25,0.44,79.63,0.0,0.0,9.81,1.0,0.0,0.0,0.0,0.0,0.0,0.0
1752615816107,23.25,0.88,80.63,0.0,0.0,9.81,1.0,0.0,0.0,0.0,0.0,0.0,0.0
1752615816228,14.44,1.75,80.88,0.0,0.0,9.81,1.0,0.0,0.0,0.0,0.0,0.0,0.0
1752615816462,10.06,5.19,76.69,0.0,0.0,9.81,1.0,0.0,0.0,0.0,0.0,0.0,0.0
1752615816573,8.81,7.06,76.56,0.0,0.0,9.81,1.0,0.0,0.0,0.0,0.0,0.0,0.0
1752615816798,13.69,5.94,81.13,0.0,0.0,9.81,1.0,0.0,0.0,0.0,0.0,0.0,0.0
1752615816923,13.13,4.31,80.31,0.0,0.0,9.81,1.0,0.0,0.0,0.0,0.0,0.0,0.0
1752615817144,13.31,1.19,80.88,0.0,0.0,9.81,1.0,0.0,0.0,0.0,0.0,0.0,0.0
1752615817270,9.0,-0.81,80.06,0.0,0.0,9.81,1.0,0.0,0.0,0.0,0.0,0.0,0.0
1752615817394,6.44,0.0,81.38,0.0,0.0,9.81,1.0,0.0,0.0,0.0,0.0,0.0,0.0
1752615817515,8.94,0.31,81.75,0.0,0.0,9.81,1.0,0.0,0.0,0.0,0.0,0.0,0.0
1752615817634,11.69,2.38,85.31,0.0,0.0,9.81,1.0,0.0,0.0,0.0,0.0,0.0,0.0
1752615817752,19.75,6.94,81.31,0.0,0.0,9.81,1.0,0.0,0.0,0.0,0.0,0.0,0.0
1752615817876,12.31,9.81,81.19,0.0,0.0,9.81,1.0,0.0,0.0,0.0,0.0,0.0,0.0
1752615818002,12.69,10.5,80.0,0.0,0.0,9.81,1.0,0.0,0.0,0.0,0.0,0.0,0.0
1752615818133,13.94,10.25,80.94,0.0,0.0,9.81,1.0,0.0,0.0,0.0,0.0,0.0,0.0
1752615818352,14.94,10.0,82.06,0.0,0.0,9.81,1.0,0.0,0.0,0.0,0.0,0.0,0.0
1752615818469,15.81,9.63,78.63,0.0,0.0,9.81,1.0,0.0,0.0,0.0,0.0,0.0,0.0
1752615818588,14.63,8.19,79.19,0.0,0.0,9.81,1.0,0.0,0.0,0.0,0.0,0.0,0.0
1752615818718,12.44,7.69,79.56,0.0,0.0,9.81,1.0,0.0,0.0,0.0,0.0,0.0,0.0
1752615818836,12.56,7.06,80.25,0.0,0.0,9.81,1.0,0.0,0.0,0.0,0.0,0.0,0.0
1752615818964,11.63,5.06,80.13,0.0,0.0,9.81,1.0,0.0,0.0,0.0,0.0,0.0,0.0
1752615819078,10.44,3.94,79.69,0.0,0.0,9.81,1.0,0.0,0.0,0.0,0.0,0.0,0.0
1752615819210,9.31,2.31,79.56,0.0,0.0,9.81,1.0,0.0,0.0,0.0,0.0,0.0,0.0
1752615819325,9.75,2.0,79.69,0.0,0.0,9.81,1.0,0.0,0.0,0.0,0.0,0.0,0.0
1752615819444,9.94,2.06,80.44,0.0,0.0,9.81,1.0,0.0,0.0,0.0,0.0,0.0,0.0
1752615819683,7.94,1.0,77.06,0.0,0.0,9.81,1.0,0.0,0.0,0.0,0.0,0.0,0.0
1752615819800,6.5,-1.44,73.5,0.0,0.0,9.81,1.0,0.0,0.0,0.0,0.0,0.0,0.0
1752615819917,4.69,-3.25,72.75,0.0,0.0,9.81,1.0,0.0,0.0,0.0,0.0,0.0,0.0
1752615820038,4.31,-4.06,72.81,0.0,0.0,9.81,1.0,0.0,0.0,0.0,0.0,0.0,0.0
1752615820170,6.06,-2.81,72.31,0.0,0.0,9.81,1.0,0.0,0.0,0.0,0.0,0.0,0.0
1752615820289,11.06,1.5,70.88,0.0,0.0,9.81,1.0,0.0,0.0,0.0,0.0,0.0,0.0
1752615820413,11.38,1.75,70.63,0.0,0.0,9.81,1.0,0.0,0.0,0.0,0.0,0.0,0.0
1752615820542,18.94,5.44,70.5,0.0,0.0,9.81,1.0,0.0,0.0,0.0,0.0,0.0,0.0
1752615820659,19.94,6.13,70.5,0.0,0.0,9.81,1.0,0.0,0.0,0.0,0.0,0.0,0.0
1752615820785,25.44,6.63,70.75,0.0,0.0,9.81,1.0,0.0,0.0,0.0,0.0,0.0,0.0
1752615820900,25.5,6.56,70.56,0.0,0.0,9.81,1.0,0.0,0.0,0.0,0.0,0.0,0.0
1752615821023,12.63,-4.25,70.19,0.0,0.0,9.81,1.0,0.0,0.0,0.0,0.0,0.0,0.0
1752615821151,19.38,1.06,66.5,0.0,0.0,9.81,1.0,0.0,0.0,0.0,0.0,0.0,0.0
1752615833145,0.0,0.0,0.0,0.0,0.0,9.81,1.0,0.0,0.0,0.0,0.0,0.0,0.0
1752615833265,359.06,0.44,0.0,0.0,0.0,9.81,1.0,0.0,0.0,0.0,0.0,0.0,0.0
1752615833390,358.81,-1.25,0.88,0.0,0.0,9.81,1.0,0.0,0.0,0.0,0.0,0.0,0.0
1752615833507,359.88,1.25,0.25,0.0,0.0,9.81,1.0,0.0,0.0,0.0,0.0,0.0,0.0
1752615833630,1.31,6.25,-2.25,0.0,0.0,9.81,1.0,0.0,0.0,0.0,0.0,0.0,0.0
1752615833854,356.13,-1.81,77.31,0.0,0.0,9.81,1.0,0.0,0.0,0.0,0.0,0.0,0.0
1752615833990,355.31,-2.63,78.94,0.0,0.0,9.81,1.0,0.0,0.0,0.0,0.0,0.0,0.0
1752615834210,354.38,-3.94,80.19,0.0,0.0,9.81,1.0,0.0,0.0,0.0,0.0,0.0,0.0
1752615834345,354.44,-3.56,80.25,0.0,0.0,9.81,1.0,0.0,0.0,0.0,0.0,0.0,0.0
1752615834464,354.56,-3.25,80.25,0.0,0.0,9.81,1.0,0.0,0.0,0.0,0.0,0.0,0.0
1752615834582,354.75,-3.25,80.44,0.0,0.0,9.81,1.0,0.0,0.0,0.0,0.0,0.0,0.0
1752615834706,354.31,-3.88,80.13,0.0,0.0,9.81,1.0,0.0,0.0,0.0,0.0,0.0,0.0
1752615834835,354.06,-4.0,80.0,0.0,0.0,9.81,1.0,0.0,0.0,0.0,0.0,0.0,0.0
1752615834959,354.5,-4.31,80.25,0.0,0.0,9.81,1.0,0.0,0.0,0.0,0.0,0.0,0.0
1752615835192,352.63,-5.81,77.0,0.0,0.0,9.81,1.0,0.0,0.0,0.0,0.0,0.0,0.0
1752615835322,350.69,-7.38,76.63,0.0,0.0,9.81,1.0,0.0,0.0,0.0,0.0,0.0,0.0
1752615835442,350.0,-8.38,75.94,0.0,0.0,9.81,1.0,0.0,0.0,0.0,0.0,0.0,0.0
1752615835679,349.44,-9.13,74.19,0.0,0.0,9.81,1.0,0.0,0.0,0.0,0.0,0.0,0.0
1752615835796,349.75,-8.63,74.56,0.0,0.0,9.81,1.0,0.0,0.0,0.0,0.0,0.0,0.0
1752615835914,350.06,-8.56,74.31,0.0,0.0,9.81,1.0,0.0,0.0,0.0,0.0,0.0,0.0
1752615836037,350.38,-8.69,73.56,0.0,0.0,9.81,1.0,0.0,0.0,0.0,0.0,0.0,0.0
1752615836172,350.81,-8.75,74.38,0.0,0.0,9.81,1.0,0.0,0.0,0.0,0.0,0.0,0.0
1752615836287,351.56,-8.5,75.31,0.0,0.0,9.81,1.0,0.0,0.0,0.0,0.0,0.0,0.0
1752615836425,351.94,-8.19,75.13,0.0,0.0,9.81,1.0,0.0,0.0,0.0,0.0,0.0,0.0
1752615836527,352.19,-7.5,74.63,0.0,0.0,9.81,1.0,0.0,0.0,0.0,0.0,0.0,0.0
1752615836656,353.75,-6.44,74.88,0.0,0.0,9.81,1.0,0.0,0.0,0.0,0.0,0.0,0.0
1752615836779,355.25,-5.63,75.81,0.0,0.0,9.81,1.0,0.0,0.0,0.0,0.0,0.0,0.0
1752615837003,355.63,-5.13,76.31,0.0,0.0,9.81,1.0,0.0,0.0,0.0,0.0,0.0,0.0
1752615837129,355.94,-4.19,76.25,0.0,0.0,9.81,1.0,0.0,0.0,0.0,0.0,0.0,0.0
1752615837247,358.19,-2.94,77.5,0.0,0.0,9.81,1.0,0.0,0.0,0.0,0.0,0.0,0.0
1752615837382,359.88,-2.56,78.63,0.0,0.0,9.81,1.0,0.0,0.0,0.0,0.0,0.0,0.0
1752615837626,359.25,-3.06,79.56,0.0,0.0,9.81,1.0,0.0,0.0,0.0,0.0,0.0,0.0
1752615837754,358.69,-3.75,80.44,0.0,0.0,9.81,1.0,0.0,0.0,0.0,0.0,0.0,0.0
1752615837878,358.69,-4.25,81.06,0.0,0.0,9.81,1.0,0.0,0.0,0.0,0.0,0.0,0.0
1752615838002,358.25,-4.13,81.06,0.0,0.0,9.81,1.0,0.0,0.0,0.0,0.0,0.0,0.0
1752615838121,357.56,-4.31,80.69,0.0,0.0,9.81,1.0,0.0,0.0,0.0,0.0,0.0,0.0
1752615838245,358.0,-4.31,80.69,0.0,0.0,9.81,1.0,0.0,0.0,0.0,0.0,0.0,0.0
1752615838367,359.13,-3.56,81.13,0.0,0.0,9.81,1.0,0.0,0.0,0.0,0.0,0.0,0.0
1752615850871,0.0,0.0,0.0,0.0,0.0,9.81,1.0,0.0,0.0,0.0,0.0,0.0,0.0
1752615850991,0.06,-39.56,22.44,0.0,0.0,9.81,1.0,0.0,0.0,0.0,0.0,0.0,0.0
1752615851106,359.63,-39.88,22.44,0.0,0.0,9.81,1.0,0.0,0.0,0.0,0.0,0.0,0.0
1752615851227,359.44,-40.0,22.13,0.0,0.0,9.81,1.0,0.0,0.0,0.0,0.0,0.0,0.0
1752615851356,358.94,-40.0,21.13,0.0,0.0,9.81,1.0,0.0,0.0,0.0,0.0,0.0,0.0
1752615851474,358.31,-39.56,22.94,0.0,0.0,9.81,1.0,0.0,0.0,0.0,0.0,0.0,0.0
1752615851592,357.75,-38.19,25.13,0.0,0.0,9.81,1.0,0.0,0.0,0.0,0.0,0.0,0.0
1752615851713,359.31,-36.19,28.5,0.0,0.0,9.81,1.0,0.0,0.0,0.0,0.0,0.0,0.0
1752615851949,4.75,-31.94,32.31,0.0,0.0,9.81,1.0,0.0,0.0,0.0,0.0,0.0,0.0
1752615852067,6.81,-29.19,33.56,0.0,0.0,9.81,1.0,0.0,0.0,0.0,0.0,0.0,0.0
1752615852185,7.56,-26.81,32.06,0.0,0.0,9.81,1.0,0.0,0.0,0.0,0.0,0.0,0.0
1752615852303,7.13,-27.06,28.31,0.0,0.0,9.81,1.0,0.0,0.0,0.0,0.0,0.0,0.0
1752615852524,2.88,-33.19,22.0,0.0,0.0,9.81,1.0,0.0,0.0,0.0,0.0,0.0,0.0
1752615852658,0.5,-36.88,20.38,0.0,0.0,9.81,1.0,0.0,0.0,0.0,0.0,0.0,0.0
1752615852776,357.56,-41.19,19.06,0.0,0.0,9.81,1.0,0.0,0.0,0.0,0.0,0.0,0.0
1752615852898,355.0,-45.75,17.94,0.0,0.0,9.81,1.0,0.0,0.0,0.0,0.0,0.0,0.0
1752615853022,352.69,-49.25,16.69,0.0,0.0,9.81,1.0,0.0,0.0,0.0,0.0,0.0,0.0
1752615853139,351.13,-50.81,17.44,0.0,0.0,9.81,1.0,0.0,0.0,0.0,0.0,0.0,0.0
1752615853267,350.5,-48.88,22.19,0.0,0.0,9.81,1.0,0.0,0.0,0.0,0.0,0.0,0.0
1752615853391,353.0,-44.0,27.81,0.0,0.0,9.81,1.0,0.0,0.0,0.0,0.0,0.0,0.0
1752615853617,356.56,-36.94,33.44,0.0,0.0,9.81,1.0,0.0,0.0,0.0,0.0,0.0,0.0
1752615853739,359.5,-34.19,31.13,0.0,0.0,9.81,1.0,0.0,0.0,0.0,0.0,0.0,0.0
1752615853964,359.63,-38.75,28.0,0.0,0.0,9.81,1.0,0.0,0.0,0.0,0.0,0.0,0.0
1752615854089,356.5,-44.44,27.0,0.0,0.0,9.81,1.0,0.0,0.0,0.0,0.0,0.0,0.0
1752615854215,353.06,-48.75,24.63,0.0,0.0,9.81,1.0,0.0,0.0,0.0,0.0,0.0,0.0
1752615854435,347.06,-54.06,15.75,0.0,0.0,9.81,1.0,0.0,0.0,0.0,0.0,0.0,0.0
1752615854553,348.88,-52.88,15.75,0.0,0.0,9.81,1.0,0.0,0.0,0.0,0.0,0.0,0.0
1752615854685,347.75,-53.13,13.5,0.0,0.0,9.81,1.0,0.0,0.0,0.0,0.0,0.0,0.0
1752615854804,348.19,-50.81,13.06,0.0,0.0,9.81,1.0,0.0,0.0,0.0,0.0,0.0,0.0
1752615855025,347.94,-44.13,13.69,0.0,0.0,9.81,1.0,0.0,0.0,0.0,0.0,0.0,0.0
1752615855142,350.75,-41.31,16.06,0.0,0.0,9.81,1.0,0.0,0.0,0.0,0.0,0.0,0.0
1752615855270,353.56,-40.0,19.56,0.0,0.0,9.81,1.0,0.0,0.0,0.0,0.0,0.0,0.0
1752615855386,355.69,-39.94,23.63,0.0,0.0,9.81,1.0,0.0,0.0,0.0,0.0,0.0,0.0
1752615865288,0.0,0.0,0.0,0.0,0.0,9.81,1.0,0.0,0.0,0.0,0.0,0.0,0.0
1752615865407,0.25,0.31,0.0,0.0,0.0,9.81,1.0,0.0,0.0,0.0,0.0,0.0,0.0
1752615865535,359.0,18.63,122.63,0.0,0.0,9.81,1.0,0.0,0.0,0.0,0.0,0.0,0.0
1752615865963,347.63,11.69,107.94,0.0,0.0,9.81,1.0,0.0,0.0,0.0,0.0,0.0,0.0
1752615866081,342.25,5.31,103.19,0.0,0.0,9.81,1.0,0.0,0.0,0.0,0.0,0.0,0.0
1752615866203,335.63,-0.75,98.44,0.0,0.0,9.81,1.0,0.0,0.0,0.0,0.0,0.0,0.0
1752615866431,323.81,-7.13,92.25,0.0,0.0,9.81,1.0,0.0,0.0,0.0,0.0,0.0,0.0
1752615866554,323.94,-3.81,90.19,0.0,0.0,9.81,1.0,0.0,0.0,0.0,0.0,0.0,0.0
1752615866775,328.19,5.25,93.44,0.0,0.0,9.81,1.0,0.0,0.0,0.0,0.0,0.0,0.0
1752615866896,328.5,7.0,93.63,0.0,0.0,9.81,1.0,0.0,0.0,0.0,0.0,0.0,0.0
1752615867021,328.94,7.38,95.44,0.0,0.0,9.81,1.0,0.0,0.0,0.0,0.0,0.0,0.0
1752615867148,328.0,6.81,95.44,0.0,0.0,9.81,1.0,0.0,0.0,0.0,0.0,0.0,0.0
1752615867262,327.25,6.19,95.44,0.0,0.0,9.81,1.0,0.0,0.0,0.0,0.0,0.0,0.0
1752615867497,328.31,7.0,94.94,0.0,0.0,9.81,1.0,0.0,0.0,0.0,0.0,0.0,0.0
1752615867608,329.63,7.81,94.63,0.0,0.0,9.81,1.0,0.0,0.0,0.0,0.0,0.0,0.0
1752615867856,331.5,8.19,94.88,0.0,0.0,9.81,1.0,0.0,0.0,0.0,0.0,0.0,0.0
1752615868086,330.56,8.69,93.13,0.0,0.0,9.81,1.0,0.0,0.0,0.0,0.0,0.0,0.0
1752615868198,329.25,8.0,92.13,0.0,0.0,9.81,1.0,0.0,0.0,0.0,0.0,0.0,0.0
1752615868419,328.63,7.75,91.13,0.0,0.0,9.81,1.0,0.0,0.0,0.0,0.0,0.0,0.0
1752615868650,330.81,8.63,94.88,0.0,0.0,9.81,1.0,0.0,0.0,0.0,0.0,0.0,0.0
1752615868774,332.38,9.44,96.44,0.0,0.0,9.81,1.0,0.0,0.0,0.0,0.0,0.0,0.0
1752615868901,332.88,10.31,95.63,0.0,0.0,9.81,1.0,0.0,0.0,0.0,0.0,0.0,0.0
1752615869020,333.38,10.81,96.25,0.0,0.0,9.81,1.0,0.0,0.0,0.0,0.0,0.0,0.0
1752615869141,333.56,11.13,97.31,0.0,0.0,9.81,1.0,0.0,0.0,0.0,0.0,0.0,0.0
1752615869374,332.0,11.5,94.63,0.0,0.0,9.81,1.0,0.0,0.0,0.0,0.0,0.0,0.0
1752615869496,331.19,11.75,92.94,0.0,0.0,9.81,1.0,0.0,0.0,0.0,0.0,0.0,0.0
1752615869612,331.81,12.19,93.44,0.0,0.0,9.81,1.0,0.0,0.0,0.0,0.0,0.0,0.0
1752615869731,332.44,12.56,93.75,0.0,0.0,9.81,1.0,0.0,0.0,0.0,0.0,0.0,0.0
1752615869867,332.63,12.81,92.88,0.0,0.0,9.81,1.0,0.0,0.0,0.0,0.0,0.0,0.0
1752615869997,332.31,12.69,91.88,0.0,0.0,9.81,1.0,0.0,0.0,0.0,0.0,0.0,0.0
1752615870225,332.06,12.63,91.44,0.0,0.0,9.81,1.0,0.0,0.0,0.0,0.0,0.0,0.0
1752615870358,332.25,12.69,91.63,0.0,0.0,9.81,1.0,0.0,0.0,0.0,0.0,0.0,0.0
1752615870593,332.38,12.75,91.63,0.0,0.0,9.81,1.0,0.0,0.0,0.0,0.0,0.0,0.0
1752615870714,332.5,12.81,91.69,0.0,0.0,9.81,1.0,0.0,0.0,0.0,0.0,0.0,0.0
1752615870829,332.5,12.88,91.75,0.0,0.0,9.81,1.0,0.0,0.0,0.0,0.0,0.0,0.0
1752615871159,332.38,12.81,91.38,0.0,0.0,9.81,1.0,0.0,0.0,0.0,0.0,0.0,0.0
1752615871276,332.38,12.81,91.38,0.0,0.0,9.81,1.0,0.0,0.0,0.0,0.0,0.0,0.0
1752615871505,332.06,12.63,91.06,0.0,0.0,9.81,1.0,0.0,0.0,0.0,0.0,0.0,0.0
1752615871623,332.06,12.63,91.0,0.0,0.0,9.81,1.0,0.0,0.0,0.0,0.0,0.0,0.0
1752615871741,331.56,12.63,89.94,0.0,0.0,9.81,1.0,0.0,0.0,0.0,0.0,0.0,0.0
1752615871978,332.56,12.75,92.0,0.0,0.0,9.81,1.0,0.0,0.0,0.0,0.0,0.0,0.0
1752615872198,331.31,12.56,89.0,0.0,0.0,9.81,1.0,0.0,0.0,0.0,0.0,0.0,0.0
1752615872318,331.63,12.56,89.63,0.0,0.0,9.81,1.0,0.0,0.0,0.0,0.0,0.0,0.0
1752615872446,331.31,12.44,88.75,0.0,0.0,9.81,1.0,0.0,0.0,0.0,0.0,0.0,0.0
1752615872572,329.19,11.69,84.81,0.0,0.0,9.81,1.0,0.0,0.0,0.0,0.0,0.0,0.0
1752615872695,328.63,11.19,83.63,0.0,0.0,9.81,1.0,0.0,0.0,0.0,0.0,0.0,0.0
1752615872815,328.63,10.81,81.63,0.0,0.0,9.81,1.0,0.0,0.0,0.0,0.0,0.0,0.0
1752615872935,325.25,5.88,79.63,0.0,0.0,9.81,1.0,0.0,0.0,0.0,0.0,0.0,0.0
1752615873053,319.5,-1.25,78.56,0.0,0.0,9.81,1.0,0.0,0.0,0.0,0.0,0.0,0.0
1752615873178,316.31,-7.5,78.31,0.0,0.0,9.81,1.0,0.0,0.0,0.0,0.0,0.0,0.0
1752615873302,314.88,-12.19,77.5,0.0,0.0,9.81,1.0,0.0,0.0,0.0,0.0,0.0,0.0
1752615873422,313.88,-16.25,76.44,0.0,0.0,9.81,1.0,0.0,0.0,0.0,0.0,0.0,0.0
1752615873541,312.38,-17.81,77.06,0.0,0.0,9.81,1.0,0.0,0.0,0.0,0.0,0.0,0.0
1752615873671,315.69,-13.31,77.75,0.0,0.0,9.81,1.0,0.0,0.0,0.0,0.0,0.0,0.0
1752615873892,325.13,-1.13,74.06,0.0,0.0,9.81,1.0,0.0,0.0,0.0,0.0,0.0,0.0
1752615874226,319.5,-7.69,68.81,0.0,0.0,9.81,1.0,0.0,0.0,0.0,0.0,0.0,0.0
1752615874344,314.19,-14.31,67.81,0.0,0.0,9.81,1.0,0.0,0.0,0.0,0.0,0.0,0.0
1752615874458,310.19,-21.81,66.25,0.0,0.0,9.81,1.0,0.0,0.0,0.0,0.0,0.0,0.0
1752615874577,304.94,-28.75,65.25,0.0,0.0,9.81,1.0,0.0,0.0,0.0,0.0,0.0,0.0
1752615874714,305.19,-28.5,67.0,0.0,0.0,9.81,1.0,0.0,0.0,0.0,0.0,0.0,0.0
1752615874832,309.13,-22.81,66.63,0.0,0.0,9.81,1.0,0.0,0.0,0.0,0.0,0.0,0.0
1752615874953,312.0,-17.13,63.13,0.0,0.0,9.81,1.0,0.0,0.0,0.0,0.0,0.0,0.0
1752615875083,315.25,-12.31,60.94,0.0,0.0,9.81,1.0,0.0,0.0,0.0,0.0,0.0,0.0
1752615875198,318.31,-8.88,60.25,0.0,0.0,9.81,1.0,0.0,0.0,0.0,0.0,0.0,0.0
1752615875323,318.5,-7.75,57.19,0.0,0.0,9.81,1.0,0.0,0.0,0.0,0.0,0.0,0.0
1752615875449,313.88,-11.56,55.19,0.0,0.0,9.81,1.0,0.0,0.0,0.0,0.0,0.0,0.0
1752615875568,306.38,-18.38,52.81,0.0,0.0,9.81,1.0,0.0,0.0,0.0,0.0,0.0,0.0
1752615875899,285.81,-30.13,45.56,0.0,0.0,9.81,1.0,0.0,0.0,0.0,0.0,0.0,0.0
1752615876019,277.94,-30.38,43.81,0.0,0.0,9.81,1.0,0.0,0.0,0.0,0.0,0.0,0.0
1752615876141,272.13,-30.44,43.31,0.0,0.0,9.81,1.0,0.0,0.0,0.0,0.0,0.0,0.0
1752615876258,271.13,-30.44,43.56,0.0,0.0,9.81,1.0,0.0,0.0,0.0,0.0,0.0,0.0
1752615876382,276.5,-29.13,43.75,0.0,0.0,9.81,1.0,0.0,0.0,0.0,0.0,0.0,0.0
1752615876500,284.5,-27.5,43.81,0.0,0.0,9.81,1.0,0.0,0.0,0.0,0.0,0.0,0.0
1752615876623,295.75,-26.94,43.13,0.0,0.0,9.81,1.0,0.0,0.0,0.0,0.0,0.0,0.0
1752615876743,303.69,-26.06,41.56,0.0,0.0,9.81,1.0,0.0,0.0,0.0,0.0,0.0,0.0
1752615876876,311.06,-22.88,40.13,0.0,0.0,9.81,1.0,0.0,0.0,0.0,0.0,0.0,0.0
1752615877012,332.38,-21.94,39.19,0.0,0.0,9.81,1.0,0.0,0.0,0.0,0.0,0.0,0.0
1752615877125,327.13,-23.88,38.44,0.0,0.0,9.81,1.0,0.0,0.0,0.0,0.0,0.0,0.0
1752615877253,317.81,-26.75,38.94,0.0,0.0,9.81,1.0,0.0,0.0,0.0,0.0,0.0,0.0
1752615877480,290.81,-29.56,35.88,0.0,0.0,9.81,1.0,0.0,0.0,0.0,0.0,0.0,0.0
1752615877596,276.75,-29.81,34.19,0.0,0.0,9.81,1.0,0.0,0.0,0.0,0.0,0.0,0.0
1752615877723,264.44,-29.75,32.44,0.0,0.0,9.81,1.0,0.0,0.0,0.0,0.0,0.0,0.0
1752615877844,258.38,-29.0,31.88,0.0,0.0,9.81,1.0,0.0,0.0,0.0,0.0,0.0,0.0
1752615877964,258.13,-29.94,31.81,0.0,0.0,9.81,1.0,0.0,0.0,0.0,0.0,0.0,0.0
1752615878096,263.06,-31.0,31.94,0.0,0.0,9.81,1.0,0.0,0.0,0.0,0.0,0.0,0.0
1752615878321,282.44,-33.0,34.88,0.0,0.0,9.81,1.0,0.0,0.0,0.0,0.0,0.0,0.0
1752615878448,296.88,-31.56,38.25,0.0,0.0,9.81,1.0,0.0,0.0,0.0,0.0,0.0,0.0
1752615878574,308.94,-29.31,40.5,0.0,0.0,9.81,1.0,0.0,0.0,0.0,0.0,0.0,0.0
1752615878696,325.25,-24.0,42.19,0.0,0.0,9.81,1.0,0.0,0.0,0.0,0.0,0.0,0.0
1752615878814,330.56,-23.56,42.06,0.0,0.0,9.81,1.0,0.0,0.0,0.0,0.0,0.0,0.0
1752615878933,330.63,-23.63,41.44,0.0,0.0,9.81,1.0,0.0,0.0,0.0,0.0,0.0,0.0
1752615879161,311.88,-29.56,34.56,0.0,0.0,9.81,1.0,0.0,0.0,0.0,0.0,0.0,0.0
1752615879287,295.63,-32.63,29.0,0.0,0.0,9.81,1.0,0.0,0.0,0.0,0.0,0.0,0.0
1752615879403,277.5,-33.06,21.69,0.0,0.0,9.81,1.0,0.0,0.0,0.0,0.0,0.0,0.0
1752615879527,263.88,-32.13,16.0,0.0,0.0,9.81,1.0,0.0,0.0,0.0,0.0,0.0,0.0
1752615879656,258.38,-31.5,16.06,0.0,0.0,9.81,1.0,0.0,0.0,0.0,0.0,0.0,0.0
1752615879775,260.0,-31.0,18.63,0.0,0.0,9.81,1.0,0.0,0.0,0.0,0.0,0.0,0.0
1752615880007,273.88,-31.75,35.44,0.0,0.0,9.81,1.0,0.0,0.0,0.0,0.0,0.0,0.0
1752615880229,298.75,-23.5,53.75,0.0,0.0,9.81,1.0,0.0,0.0,0.0,0.0,0.0,0.0
1752615880345,313.5,-17.94,60.25,0.0,0.0,9.81,1.0,0.0,0.0,0.0,0.0,0.0,0.0
1752615880468,324.13,-12.38,64.38,0.0,0.0,9.81,1.0,0.0,0.0,0.0,0.0,0.0,0.0
1752615880593,333.19,-6.75,65.88,0.0,0.0,9.81,1.0,0.0,0.0,0.0,0.0,0.0,0.0
1752615880715,337.19,-4.0,66.5,0.0,0.0,9.81,1.0,0.0,0.0,0.0,0.0,0.0,0.0
1752615880837,339.19,-3.56,66.31,0.0,0.0,9.81,1.0,0.0,0.0,0.0,0.0,0.0,0.0
1752615880969,338.81,-5.06,66.69,0.0,0.0,9.81,1.0,0.0,0.0,0.0,0.0,0.0,0.0
1752615881088,337.63,-8.31,67.31,0.0,0.0,9.81,1.0,0.0,0.0,0.0,0.0,0.0,0.0
1752615881207,336.56,-11.44,68.06,0.0,0.0,9.81,1.0,0.0,0.0,0.0,0.0,0.0,0.0
1752615881333,336.0,-13.44,68.5,0.0,0.0,9.81,1.0,0.0,0.0,0.0,0.0,0.0,0.0
1752615881459,336.25,-14.13,68.0,0.0,0.0,9.81,1.0,0.0,0.0,0.0,0.0,0.0,0.0
1752615881575,343.31,-7.25,65.88,0.0,0.0,9.81,1.0,0.0,0.0,0.0,0.0,0.0,0.0
1752615881699,344.19,-4.44,63.31,0.0,0.0,9.81,1.0,0.0,0.0,0.0,0.0,0.0,0.0
1752615881823,343.0,-4.31,63.88,0.0,0.0,9.81,1.0,0.0,0.0,0.0,0.0,0.0,0.0
1752615882052,342.44,-4.88,63.25,0.0,0.0,9.81,1.0,0.0,0.0,0.0,0.0,0.0,0.0
1752615882177,342.44,-5.25,62.88,0.0,0.0,9.81,1.0,0.0,0.0,0.0,0.0,0.0,0.0
1752615882296,342.69,-5.44,62.13,0.0,0.0,9.81,1.0,0.0,0.0,0.0,0.0,0.0,0.0
1752615882520,343.19,-4.13,60.69,0.0,0.0,9.81,1.0,0.0,0.0,0.0,0.0,0.0,0.0
1752615882647,343.5,-3.31,59.94,0.0,0.0,9.81,1.0,0.0,0.0,0.0,0.0,0.0,0.0
1752615882773,343.69,-2.88,59.56,0.0,0.0,9.81,1.0,0.0,0.0,0.0,0.0,0.0,0.0
1752615882910,342.94,-3.0,59.63,0.0,0.0,9.81,1.0,0.0,0.0,0.0,0.0,0.0,0.0
1752615883021,342.13,-3.5,59.94,0.0,0.0,9.81,1.0,0.0,0.0,0.0,0.0,0.0,0.0
1752615883156,341.75,-3.81,60.81,0.0,0.0,9.81,1.0,0.0,0.0,0.0,0.0,0.0,0.0
1752615883284,341.88,-3.31,60.56,0.0,0.0,9.81,1.0,0.0,0.0,0.0,0.0,0.0,0.0
1752615883404,341.5,-2.38,59.88,0.0,0.0,9.81,1.0,0.0,0.0,0.0,0.0,0.0,0.0
1752615883843,339.56,-3.0,59.94,0.0,0.0,9.81,1.0,0.0,0.0,0.0,0.0,0.0,0.0
1752615883962,339.38,-3.13,60.19,0.0,0.0,9.81,1.0,0.0,0.0,0.0,0.0,0.0,0.0
1752615919179,0.0,0.0,0.0,0.0,0.0,9.81,1.0,0.0,0.0,0.0,0.0,0.0,0.0
1752615919302,359.44,-26.0,41.19,0.0,0.0,9.81,1.0,0.0,0.0,0.0,0.0,0.0,0.0
1752615919535,359.88,-25.31,39.94,0.0,0.0,9.81,1.0,0.0,0.0,0.0,0.0,0.0,0.0
1752615919753,1.25,-25.38,39.63,0.0,0.0,9.81,1.0,0.0,0.0,0.0,0.0,0.0,0.0
