timestamp,heading,roll,pitch,acc_x,acc_y,acc_z,lin_acc_x,lin_acc_y,lin_acc_z,quat_w,quat_x,quat_y,quat_z,mag_x,mag_y,mag_z
1752854691093,358.0,-22.0,122.0,-4.0,-8.0,-5.0,0.1,-0.1,0.1,0.51,-0.79,0.35,0.01,0.0,0.0,0.0
1752854691093,358.0,-22.0,122.0,-4.0,-8.0,-5.0,-0.1,-0.3,-0.1,0.51,-0.79,0.35,0.01,0.0,0.0,0.0
1752854691181,358.0,-22.0,122.0,-4.0,-8.0,-5.0,-0.1,0.0,0.1,0.51,-0.79,0.35,0.01,0.0,0.0,0.0
1752854691532,358.0,-22.0,122.0,-4.0,-8.0,-5.0,-0.1,-0.3,-0.0,0.51,-0.79,0.35,0.01,0.0,0.0,0.0
1752854691566,358.0,-22.0,122.0,-4.0,-8.0,-5.0,-0.0,-0.3,-0.0,0.51,-0.79,0.35,0.01,0.0,0.0,0.0
1752854691615,358.0,-22.0,122.0,-4.0,-8.0,-5.0,-0.0,-0.3,-0.0,0.51,-0.79,0.35,0.01,0.0,0.0,0.0
1752854691649,358.0,-22.0,122.0,-4.0,-8.0,-5.0,-0.1,-0.1,-0.0,0.51,-0.79,0.35,0.01,0.0,0.0,0.0
1752854691699,358.0,-22.0,122.0,-4.0,-8.0,-5.0,-0.1,-0.1,0.0,0.51,-0.79,0.35,0.01,0.0,0.0,0.0
1752854691732,358.0,-22.0,122.0,-4.0,-8.0,-5.0,-0.1,-0.2,-0.1,0.51,-0.79,0.35,0.01,0.0,0.0,0.0
1752854691782,358.0,-22.0,122.0,-4.0,-8.0,-5.0,-0.1,-0.2,-0.0,0.51,-0.79,0.35,0.01,0.0,0.0,0.0
1752854691816,358.0,-22.0,122.0,-4.0,-8.0,-5.0,-0.1,-0.2,0.0,0.51,-0.79,0.35,0.01,0.0,0.0,0.0
1752854691849,358.0,-22.0,122.0,-4.0,-8.0,-5.0,-0.1,0.1,0.0,0.51,-0.79,0.35,0.01,0.0,0.0,0.0
1752854691896,358.0,-22.0,122.0,-4.0,-8.0,-5.0,-0.1,-0.1,0.0,0.51,-0.79,0.35,0.01,0.0,0.0,0.0
1752854692249,358.0,-22.0,122.0,-4.0,-8.0,-5.0,-0.1,-0.3,-0.0,0.51,-0.79,0.35,0.01,0.0,0.0,0.0
1752854692625,358.0,-22.0,122.0,-4.0,-8.0,-5.0,-0.0,-0.2,-0.0,0.51,-0.79,0.35,0.01,0.0,0.0,0.0
1752854692748,358.0,-22.0,122.0,-4.0,-8.0,-5.0,-0.1,-0.1,-0.0,0.51,-0.79,0.35,0.01,0.0,0.0,0.0
1752854692791,358.0,-22.0,122.0,-4.0,-8.0,-5.0,-0.2,-0.1,-0.1,0.51,-0.79,0.35,0.01,0.0,0.0,0.0
1752854692838,358.0,-22.0,122.0,-4.0,-8.0,-5.0,-0.2,-0.0,-0.3,0.51,-0.79,0.35,0.01,0.0,0.0,0.0
1752854692982,358.0,-22.0,122.0,-4.0,-8.0,-5.0,0.0,0.1,0.0,0.51,-0.79,0.35,0.01,0.0,0.0,0.0
1752854693021,358.0,-22.0,122.0,-4.0,-8.0,-5.0,-0.1,-0.3,-0.0,0.51,-0.79,0.35,0.01,0.0,0.0,0.0
1752854693075,358.0,-22.0,122.0,-4.0,-8.0,-5.0,-0.0,-0.2,0.0,0.51,-0.79,0.35,0.01,0.0,0.0,0.0
1752854693114,358.0,-22.0,122.0,-4.0,-8.0,-5.0,-0.0,-0.2,0.0,0.51,-0.79,0.35,0.01,0.0,0.0,0.0
1752854693149,358.0,-22.0,122.0,-4.0,-8.0,-5.0,-0.1,-0.2,0.0,0.51,-0.79,0.35,0.01,0.0,0.0,0.0
1752854693189,358.0,-22.0,122.0,-4.0,-8.0,-5.0,-0.1,-0.1,-0.0,0.51,-0.79,0.35,0.01,0.0,0.0,0.0
1752854693224,358.0,-22.0,122.0,-4.0,-8.0,-5.0,-0.1,-0.2,-0.0,0.51,-0.79,0.35,0.01,0.0,0.0,0.0
1752854693259,358.0,-22.0,122.0,-4.0,-8.0,-5.0,-0.1,-0.2,-0.0,0.51,-0.79,0.35,0.01,0.0,0.0,0.0
1752854693403,358.0,-22.0,122.0,-4.0,-8.0,-5.0,-0.1,-0.3,-0.1,0.51,-0.79,0.35,0.01,0.0,0.0,0.0
1752854693445,358.0,-22.0,122.0,-4.0,-8.0,-5.0,-0.1,-0.3,-0.0,0.51,-0.79,0.35,0.01,0.0,0.0,0.0
1752854693696,358.0,-22.0,122.0,-4.0,-8.0,-5.0,-0.1,-0.2,-0.0,0.51,-0.79,0.35,0.01,0.0,0.0,0.0
1752854694041,4.0,-22.0,121.0,-9.0,-9.0,-4.0,-5.3,-0.7,-0.4,0.51,-0.77,0.39,-0.02,0.0,0.0,0.0
1752854694083,21.0,-19.0,119.0,-9.0,-7.0,-7.0,2.5,-3.1,-2.8,0.51,-0.72,0.46,-0.09,0.0,0.0,0.0
1752854694134,26.0,-14.0,117.0,5.0,-6.0,-6.0,12.4,-2.4,3.3,0.51,-0.74,0.41,-0.12,0.0,0.0,0.0
1752854694167,30.0,-12.0,115.0,1.0,-10.0,-2.0,-4.7,-0.6,3.2,0.52,-0.74,0.39,-0.14,0.0,0.0,0.0
1752854694314,32.0,-9.0,124.0,-2.0,-8.0,-6.0,-0.7,0.1,-0.8,0.46,-0.78,0.4,-0.13,0.0,0.0,0.0
1752854694452,38.0,-6.0,127.0,0.0,-7.0,-5.0,0.5,0.8,0.8,0.43,-0.8,0.4,-0.14,0.0,0.0,0.0
1752854694597,61.0,4.0,129.0,1.0,-8.0,-7.0,-0.1,-0.1,-0.3,0.37,-0.82,0.39,-0.2,0.0,0.0,0.0
1752854694644,63.0,5.0,130.0,1.0,-8.0,-8.0,-0.1,-0.0,-1.3,0.36,-0.82,0.39,-0.22,0.0,0.0,0.0
1752854694676,65.0,5.0,130.0,0.0,-8.0,-6.0,-0.4,-0.3,0.4,0.36,-0.82,0.39,-0.23,0.0,0.0,0.0
1752854694721,66.0,6.0,130.0,2.0,-8.0,-6.0,1.1,0.0,-0.8,0.36,-0.81,0.39,-0.23,0.0,0.0,0.0
1752854694756,66.0,5.0,130.0,1.0,-7.0,-7.0,0.3,0.1,-1.0,0.36,-0.81,0.4,-0.23,0.0,0.0,0.0
1752854694802,64.0,4.0,129.0,0.0,-8.0,-7.0,-0.2,0.0,-0.3,0.36,-0.81,0.4,-0.23,0.0,0.0,0.0
1752854694848,62.0,3.0,129.0,0.0,-8.0,-6.0,-0.3,-0.1,0.0,0.37,-0.81,0.41,-0.22,0.0,0.0,0.0
1752854694882,60.0,2.0,129.0,1.0,-8.0,-7.0,0.8,-0.3,-0.6,0.38,-0.8,0.41,-0.22,0.0,0.0,0.0
1752854694914,58.0,1.0,128.0,0.0,-8.0,-6.0,-0.2,-0.4,0.3,0.38,-0.8,0.42,-0.21,0.0,0.0,0.0
1752854694962,53.0,-1.0,128.0,-0.0,-8.0,-6.0,0.3,-0.5,0.1,0.4,-0.79,0.42,-0.2,0.0,0.0,0.0
1752854695098,34.0,-11.0,127.0,-2.0,-7.0,-6.0,-0.0,0.5,0.1,0.43,-0.77,0.45,-0.14,0.0,0.0,0.0
1752854695146,30.0,-13.0,127.0,-2.0,-7.0,-7.0,1.0,0.1,-0.9,0.44,-0.76,0.46,-0.12,0.0,0.0,0.0
1752854695183,24.0,-17.0,126.0,-2.0,-7.0,-6.0,-0.3,0.6,0.7,0.45,-0.75,0.48,-0.1,0.0,0.0,0.0
1752854695217,17.0,-21.0,125.0,-5.0,-7.0,-5.0,-1.2,0.1,-0.1,0.47,-0.73,0.49,-0.07,0.0,0.0,0.0
1752854695258,12.0,-24.0,125.0,-3.0,-7.0,-6.0,1.6,0.2,-0.7,0.49,-0.72,0.49,-0.05,0.0,0.0,0.0
1752854695300,7.0,-28.0,124.0,-5.0,-7.0,-4.0,-0.6,0.0,0.5,0.5,-0.7,0.5,-0.03,0.0,0.0,0.0
1752854695349,3.0,-30.0,123.0,-4.0,-7.0,-5.0,1.4,-0.2,-0.5,0.51,-0.69,0.51,-0.01,0.0,0.0,0.0
1752854695384,359.0,-34.0,122.0,-6.0,-6.0,-3.0,-1.6,0.6,1.4,0.53,-0.67,0.52,0.0,0.0,0.0,0.0
1752854695416,355.0,-38.0,121.0,-7.0,-7.0,-4.0,-0.6,0.0,0.0,0.54,-0.65,0.53,0.03,0.0,0.0,0.0
1752854695464,351.0,-40.0,121.0,-5.0,-6.0,-4.0,1.2,0.3,-0.7,0.55,-0.64,0.53,0.04,0.0,0.0,0.0
1752854695709,333.0,-58.0,108.0,-10.0,-5.0,-1.0,-1.3,-0.2,1.5,0.59,-0.58,0.55,0.1,0.0,0.0,0.0
1752854695754,331.0,-59.0,106.0,-9.0,-5.0,-1.0,-0.2,0.1,0.1,0.63,-0.53,0.55,0.16,0.0,0.0,0.0
1752854695795,330.0,-61.0,105.0,-8.0,-4.0,-1.0,0.4,0.0,0.0,0.64,-0.52,0.55,0.17,0.0,0.0,0.0
1752854695849,328.0,-62.0,103.0,-9.0,-5.0,-0.0,-0.5,-0.1,0.3,0.64,-0.51,0.55,0.18,0.0,0.0,0.0
1752854696211,330.0,-61.0,104.0,-9.0,-4.0,-1.0,-0.9,0.6,0.6,0.64,-0.51,0.54,0.18,0.0,0.0,0.0
1752854696258,332.0,-59.0,106.0,-10.0,-5.0,-1.0,-1.5,0.5,0.8,0.64,-0.53,0.54,0.16,0.0,0.0,0.0
1752854696303,335.0,-55.0,109.0,-8.0,-5.0,-1.0,-0.4,0.1,0.9,0.62,-0.55,0.54,0.14,0.0,0.0,0.0
1752854696347,338.0,-52.0,111.0,-8.0,-5.0,-3.0,-0.3,0.8,-0.2,0.61,-0.57,0.54,0.12,0.0,0.0,0.0
1752854696389,342.0,-48.0,114.0,-8.0,-5.0,-2.0,0.7,0.5,0.2,0.6,-0.59,0.53,0.09,0.0,0.0,0.0
1752854696422,347.0,-44.0,116.0,-7.0,-6.0,-3.0,-0.5,0.4,0.8,0.58,-0.61,0.53,0.07,0.0,0.0,0.0
1752854696472,352.0,-40.0,119.0,-6.0,-6.0,-4.0,0.5,0.4,0.1,0.56,-0.64,0.53,0.04,0.0,0.0,0.0
1752854696504,359.0,-34.0,121.0,-5.0,-7.0,-4.0,0.3,0.0,-0.2,0.54,-0.66,0.52,0.01,0.0,0.0,0.0
1752854696553,4.0,-31.0,122.0,-4.0,-7.0,-5.0,1.0,0.1,-0.3,0.52,-0.68,0.52,-0.02,0.0,0.0,0.0
1752854696586,10.0,-28.0,123.0,-3.0,-7.0,-5.0,0.3,0.4,-0.3,0.5,-0.69,0.52,-0.04,0.0,0.0,0.0
1752854696619,16.0,-24.0,124.0,-3.0,-8.0,-5.0,-0.2,-0.2,-0.0,0.49,-0.7,0.52,-0.07,0.0,0.0,0.0
1752854696667,22.0,-21.0,125.0,-3.0,-7.0,-6.0,0.7,-0.3,-0.1,0.47,-0.71,0.52,-0.09,0.0,0.0,0.0
1752854696713,28.0,-17.0,126.0,-2.0,-8.0,-6.0,0.2,-0.1,0.2,0.46,-0.72,0.51,-0.11,0.0,0.0,0.0
1752854696761,33.0,-15.0,126.0,-3.0,-8.0,-6.0,-0.6,-0.1,0.1,0.45,-0.72,0.51,-0.13,0.0,0.0,0.0
1752854696796,38.0,-13.0,127.0,-2.0,-8.0,-6.0,0.4,-0.2,-0.0,0.43,-0.73,0.51,-0.15,0.0,0.0,0.0
1752854696833,44.0,-10.0,128.0,-1.0,-8.0,-6.0,0.2,-0.0,-0.4,0.41,-0.74,0.51,-0.16,0.0,0.0,0.0
1752854696871,49.0,-8.0,129.0,-2.0,-8.0,-6.0,-0.5,0.0,0.4,0.39,-0.75,0.5,-0.18,0.0,0.0,0.0
1752854696914,54.0,-5.0,130.0,-1.0,-7.0,-6.0,-0.4,0.0,0.3,0.38,-0.75,0.5,-0.19,0.0,0.0,0.0
1752854696959,61.0,-2.0,131.0,1.0,-8.0,-8.0,0.2,-0.0,-1.0,0.36,-0.76,0.5,-0.21,0.0,0.0,0.0
1752854697004,68.0,1.0,132.0,1.0,-8.0,-8.0,0.3,-0.6,-1.0,0.34,-0.77,0.5,-0.23,0.0,0.0,0.0
1752854697044,72.0,2.0,132.0,0.0,-8.0,-9.0,-0.4,-0.7,-2.5,0.33,-0.77,0.5,-0.24,0.0,0.0,0.0
1752854697083,76.0,4.0,131.0,3.0,-8.0,-8.0,2.0,-0.6,-2.8,0.33,-0.77,0.49,-0.26,0.0,0.0,0.0
1752854697120,75.0,4.0,128.0,1.0,-8.0,-11.0,0.9,0.4,-5.6,0.35,-0.76,0.47,-0.27,0.0,0.0,0.0
1752854697165,67.0,1.0,120.0,1.0,-8.0,-2.0,0.6,1.2,2.3,0.4,-0.74,0.46,-0.28,0.0,0.0,0.0
1752854697208,62.0,-1.0,112.0,-1.0,-9.0,-0.0,-0.7,0.3,3.3,0.47,-0.71,0.45,-0.29,0.0,0.0,0.0
1752854697261,59.0,-4.0,109.0,1.0,-10.0,-2.0,1.8,-0.4,0.9,0.5,-0.68,0.45,-0.28,0.0,0.0,0.0
1752854697284,56.0,-5.0,106.0,-2.0,-9.0,-2.0,-1.2,0.3,-1.1,0.53,-0.66,0.44,-0.28,0.0,0.0,0.0
1752854697331,54.0,-7.0,103.0,-2.0,-9.0,-4.0,1.2,0.3,-1.2,0.55,-0.65,0.44,-0.28,0.0,0.0,0.0
1752854697365,53.0,-7.0,99.0,-0.0,-9.0,-2.0,-0.5,0.4,0.4,0.58,-0.63,0.43,-0.29,0.0,0.0,0.0
1752854697410,51.0,-9.0,94.0,-2.0,-9.0,0.0,-0.5,0.6,0.7,0.61,-0.61,0.41,-0.29,0.0,0.0,0.0
1752854697452,50.0,-9.0,91.0,-1.0,-9.0,-2.0,0.4,0.9,-1.8,0.63,-0.59,0.4,-0.3,0.0,0.0,0.0
1752854697487,50.0,-9.0,88.0,0.0,-10.0,0.0,1.1,0.4,0.8,0.65,-0.58,0.38,-0.3,0.0,0.0,0.0
1752854697531,49.0,-9.0,83.0,-2.0,-10.0,3.0,0.2,0.4,1.1,0.68,-0.55,0.37,-0.31,0.0,0.0,0.0
1752854697775,43.0,-18.0,66.0,-3.0,-9.0,4.0,-0.0,-0.2,0.2,0.7,-0.53,0.36,-0.31,0.0,0.0,0.0
1752854697810,43.0,-19.0,64.0,-2.0,-8.0,4.0,1.5,-0.2,-0.1,0.78,-0.4,0.36,-0.31,0.0,0.0,0.0
1752854697855,42.0,-22.0,63.0,-4.0,-8.0,4.0,-1.8,0.4,0.9,0.79,-0.39,0.37,-0.3,0.0,0.0,0.0
1752854698002,36.0,-35.0,66.0,-6.0,-7.0,3.0,-0.4,-0.3,0.4,0.78,-0.33,0.48,-0.25,0.0,0.0,0.0
1752854698036,32.0,-40.0,68.0,-7.0,-7.0,4.0,0.3,0.7,1.9,0.77,-0.31,0.51,-0.22,0.0,0.0,0.0
1752854698078,28.0,-45.0,71.0,-8.0,-6.0,1.0,-0.7,-0.2,-1.9,0.76,-0.3,0.54,-0.19,0.0,0.0,0.0
1752854698118,24.0,-50.0,76.0,-6.0,-6.0,0.0,2.1,-0.1,-0.9,0.74,-0.3,0.58,-0.15,0.0,0.0,0.0
1752854698169,18.0,-55.0,82.0,-9.0,-6.0,1.0,-1.7,0.5,1.3,0.73,-0.29,0.61,-0.13,0.0,0.0,0.0
1752854698308,13.0,-60.0,89.0,-9.0,-4.0,-1.0,-0.2,0.0,0.4,0.71,-0.28,0.64,-0.09,0.0,0.0,0.0
1752854698350,2.0,-62.0,119.0,-9.0,-3.0,-3.0,-0.3,0.6,-0.0,0.62,-0.32,0.72,-0.01,0.0,0.0,0.0
1752854698391,358.0,-62.0,128.0,-10.0,-3.0,-4.0,-1.3,0.5,-0.5,0.59,-0.33,0.73,0.01,0.0,0.0,0.0
1752854698427,355.0,-60.0,134.0,-8.0,-3.0,-4.0,-0.1,0.4,-1.2,0.57,-0.35,0.74,0.03,0.0,0.0,0.0
1752854698475,352.0,-58.0,138.0,-9.0,-3.0,-5.0,-0.8,0.6,0.2,0.55,-0.38,0.75,0.04,0.0,0.0,0.0
1752854698512,350.0,-55.0,140.0,-7.0,-3.0,-5.0,0.8,0.5,-0.7,0.53,-0.4,0.74,0.04,0.0,0.0,0.0
1752854698559,349.0,-53.0,142.0,-8.0,-3.0,-5.0,-0.5,0.7,-0.4,0.51,-0.43,0.74,0.05,0.0,0.0,0.0
1752854698596,349.0,-51.0,143.0,-8.0,-3.0,-4.0,-0.9,1.0,0.8,0.49,-0.46,0.74,0.05,0.0,0.0,0.0
1752854698630,349.0,-48.0,145.0,-7.0,-3.0,-5.0,0.8,0.8,-1.0,0.47,-0.49,0.73,0.05,0.0,0.0,0.0
1752854698667,350.0,-44.0,146.0,-7.0,-3.0,-7.0,-1.8,0.9,0.5,0.45,-0.51,0.73,0.04,0.0,0.0,0.0
1752854698907,268.0,-22.0,145.0,-5.0,-5.0,-7.0,-1.2,0.7,0.2,0.38,-0.61,0.69,-0.0,0.0,0.0,0.0
1752854699049,263.0,-17.0,144.0,-2.0,-4.0,-8.0,1.1,0.5,-0.2,0.32,-0.7,0.63,-0.08,0.0,0.0,0.0
1752854699088,252.0,-3.0,136.0,0.0,-7.0,-6.0,1.1,0.3,1.0,0.32,-0.75,0.54,-0.19,0.0,0.0,0.0
1752854699125,64.0,-2.0,133.0,-0.0,-8.0,-7.0,-0.5,-0.8,0.0,0.34,-0.75,0.53,-0.21,0.0,0.0,0.0
1752854699177,65.0,-2.0,130.0,1.0,-8.0,-5.0,0.8,-0.7,-0.3,0.36,-0.75,0.51,-0.23,0.0,0.0,0.0
1752854699217,65.0,-1.0,128.0,-1.0,-8.0,-6.0,-0.8,-0.6,-0.3,0.37,-0.75,0.5,-0.23,0.0,0.0,0.0
1752854699256,65.0,-1.0,127.0,0.0,-9.0,-6.0,0.7,-0.7,-0.6,0.38,-0.74,0.5,-0.24,0.0,0.0,0.0
1752854699309,63.0,-2.0,124.0,-0.0,-8.0,-6.0,-0.1,0.1,-0.9,0.4,-0.74,0.49,-0.24,0.0,0.0,0.0
1752854699351,61.0,-3.0,122.0,0.0,-8.0,-5.0,1.0,0.2,-0.7,0.42,-0.73,0.49,-0.25,0.0,0.0,0.0
1752854699382,58.0,-5.0,119.0,0.0,-9.0,-5.0,1.5,-0.0,-0.2,0.44,-0.71,0.49,-0.25,0.0,0.0,0.0
1752854699425,54.0,-8.0,117.0,-0.0,-8.0,-5.0,1.4,0.1,-0.1,0.47,-0.69,0.5,-0.24,0.0,0.0,0.0
1752854699460,46.0,-14.0,113.0,-1.0,-9.0,-4.0,1.2,-0.0,0.0,0.5,-0.66,0.51,-0.22,0.0,0.0,0.0
1752854699720,18.0,-40.0,108.0,-9.0,-5.0,-1.0,-0.6,0.1,0.7,0.54,-0.62,0.53,-0.2,0.0,0.0,0.0
1752854699753,360.0,-55.0,113.0,-10.0,-5.0,-1.0,-2.1,0.4,1.1,0.62,-0.42,0.66,0.0,0.0,0.0,0.0
1752854699800,357.0,-56.0,117.0,-10.0,-4.0,-2.0,-1.0,0.4,0.6,0.61,-0.43,0.67,0.02,0.0,0.0,0.0
1752854699837,356.0,-54.0,121.0,-8.0,-4.0,-3.0,-1.0,0.6,-0.2,0.59,-0.45,0.67,0.02,0.0,0.0,0.0
1752854699970,356.0,-51.0,125.0,-6.0,-6.0,-5.0,0.3,-0.3,-0.0,0.57,-0.48,0.67,0.02,0.0,0.0,0.0
1752854700120,4.0,-37.0,131.0,-3.0,-5.0,-10.0,1.9,0.5,-3.0,0.49,-0.59,0.64,-0.01,0.0,0.0,0.0
1752854700254,9.0,-27.0,141.0,-4.0,-6.0,-7.0,-0.8,-0.0,-0.4,0.39,-0.67,0.62,-0.03,0.0,0.0,0.0
1752854700295,263.0,-21.0,140.0,-3.0,-6.0,-8.0,-0.3,-0.1,-0.4,0.37,-0.69,0.61,-0.07,0.0,0.0,0.0
1752854700337,262.0,-18.0,139.0,-3.0,-6.0,-7.0,-0.4,0.3,0.3,0.36,-0.7,0.61,-0.09,0.0,0.0,0.0
1752854700371,260.0,-16.0,139.0,-4.0,-6.0,-6.0,0.2,-0.0,0.1,0.36,-0.71,0.6,-0.11,0.0,0.0,0.0
1752854700421,257.0,-12.0,139.0,-0.0,-6.0,-9.0,1.6,-0.0,-1.5,0.34,-0.73,0.58,-0.12,0.0,0.0,0.0
1752854700764,256.0,-10.0,138.0,-2.0,-6.0,-8.0,2.8,-0.0,-1.7,0.33,-0.73,0.58,-0.13,0.0,0.0,0.0
1752854701102,47.0,-12.0,124.0,-7.0,-6.0,-4.0,-0.3,0.2,0.7,0.43,-0.69,0.54,-0.19,0.0,0.0,0.0
1752854701345,334.0,-52.0,153.0,-8.0,-2.0,-6.0,-1.1,0.6,1.1,0.46,-0.47,0.74,0.11,0.0,0.0,0.0
1752854701386,329.0,-52.0,158.0,-11.0,-1.0,-5.0,-1.0,0.7,0.6,0.45,-0.47,0.75,0.13,0.0,0.0,0.0
1752854701427,323.0,-52.0,162.0,-8.0,-1.0,-5.0,-1.7,1.5,0.5,0.43,-0.47,0.75,0.14,0.0,0.0,0.0
1752854701468,318.0,-51.0,164.0,-8.0,-1.0,-6.0,-0.5,0.4,0.1,0.42,-0.49,0.75,0.16,0.0,0.0,0.0
1752854701509,315.0,-50.0,165.0,-7.0,-1.0,-6.0,0.5,0.5,0.0,0.4,-0.51,0.74,0.17,0.0,0.0,0.0
1752854701650,304.0,-47.0,168.0,-7.0,-1.0,-7.0,0.4,0.4,-0.4,0.39,-0.54,0.73,0.17,0.0,0.0,0.0
1752854701684,303.0,-47.0,169.0,-7.0,-1.0,-7.0,0.1,0.1,0.3,0.36,-0.57,0.71,0.19,0.0,0.0,0.0
1752854701730,302.0,-47.0,169.0,-8.0,-1.0,-6.0,-0.4,0.0,0.4,0.36,-0.57,0.71,0.2,0.0,0.0,0.0
1752854701884,299.0,-45.0,171.0,-7.0,-1.0,-7.0,0.8,-0.4,-0.3,0.34,-0.59,0.71,0.2,0.0,0.0,0.0
1752854701918,297.0,-45.0,171.0,-7.0,-2.0,-6.0,0.0,-0.4,0.6,0.33,-0.6,0.7,0.2,0.0,0.0,0.0
1752854701967,279.0,-44.0,172.0,-7.0,-1.0,-6.0,-0.4,-0.4,0.7,0.32,-0.6,0.7,0.2,0.0,0.0,0.0
1752854702000,278.0,-44.0,173.0,-6.0,-1.0,-7.0,0.7,-0.1,0.1,0.31,-0.61,0.7,0.21,0.0,0.0,0.0
1752854702035,278.0,-43.0,176.0,-7.0,-0.0,-7.0,-0.4,0.2,0.6,0.3,-0.61,0.7,0.22,0.0,0.0,0.0
1752854702181,274.0,-42.0,-175.0,-6.0,1.0,-8.0,0.2,0.6,-0.5,0.24,-0.63,0.68,0.26,0.0,0.0,0.0
1752854702231,273.0,-42.0,-174.0,-7.0,1.0,-7.0,0.0,0.4,0.3,0.23,-0.64,0.68,0.28,0.0,0.0,0.0
1752854702469,272.0,-42.0,-172.0,-8.0,-2.0,-5.0,-1.5,-0.5,2.0,0.22,-0.65,0.67,0.29,0.0,0.0,0.0
1752854702518,270.0,-42.0,164.0,-4.0,-1.0,-11.0,2.7,1.1,-3.7,0.33,-0.66,0.65,0.18,0.0,0.0,0.0
1752854702551,316.0,-42.0,156.0,-3.0,-3.0,-10.0,-0.6,1.6,0.4,0.37,-0.67,0.63,0.15,0.0,0.0,0.0
1752854702587,330.0,-42.0,147.0,-9.0,-2.0,-1.0,-0.1,2.2,2.8,0.42,-0.64,0.63,0.11,0.0,0.0,0.0
1752854702634,339.0,-43.0,139.0,-8.0,-4.0,-5.0,0.0,1.1,-0.5,0.46,-0.63,0.61,0.08,0.0,0.0,0.0
1752854702684,349.0,-41.0,129.0,-6.0,-6.0,-5.0,0.3,-0.1,-0.3,0.5,-0.63,0.59,0.06,0.0,0.0,0.0
1752854702729,354.0,-40.0,123.0,-7.0,-7.0,-2.0,-0.7,-0.2,1.8,0.54,-0.62,0.57,0.03,0.0,0.0,0.0
1752854702751,0.0,-38.0,117.0,-4.0,-8.0,-2.0,1.0,-0.1,1.1,0.57,-0.62,0.54,-0.0,0.0,0.0,0.0
1752854702795,4.0,-36.0,112.0,-6.0,-7.0,-3.0,-0.2,-0.1,-0.5,0.59,-0.62,0.52,-0.02,0.0,0.0,0.0
1752854702835,5.0,-35.0,109.0,-5.0,-7.0,-3.0,-0.1,0.2,-0.1,0.6,-0.62,0.51,-0.03,0.0,0.0,0.0
1752854702972,9.0,-33.0,105.0,-4.0,-9.0,-0.0,0.2,-0.5,0.7,0.62,-0.61,0.49,-0.04,0.0,0.0,0.0
1752854703013,16.0,-27.0,94.0,-5.0,-9.0,0.0,-0.3,-0.3,0.9,0.68,-0.6,0.42,-0.1,0.0,0.0,0.0
1752854703051,18.0,-25.0,93.0,-4.0,-10.0,-0.0,0.6,-0.6,-0.4,0.68,-0.6,0.4,-0.11,0.0,0.0,0.0
1752854703088,19.0,-23.0,92.0,-4.0,-9.0,-0.0,-0.1,-0.3,0.2,0.69,-0.6,0.39,-0.12,0.0,0.0,0.0
1752854703128,20.0,-23.0,91.0,-4.0,-9.0,-1.0,-0.1,0.3,-0.4,0.69,-0.6,0.39,-0.12,0.0,0.0,0.0
1752854703285,20.0,-23.0,91.0,-6.0,-9.0,1.0,-2.4,0.0,1.5,0.69,-0.6,0.38,-0.12,0.0,0.0,0.0
1752854703324,23.0,-18.0,91.0,-5.0,-9.0,2.0,-1.6,0.3,1.3,0.69,-0.62,0.36,-0.14,0.0,0.0,0.0
1752854703372,27.0,-14.0,94.0,-2.0,-9.0,-2.0,0.4,0.1,-0.6,0.66,-0.65,0.34,-0.16,0.0,0.0,0.0
1752854703407,31.0,-10.0,97.0,-1.0,-9.0,0.0,0.0,0.3,1.9,0.64,-0.68,0.32,-0.18,0.0,0.0,0.0
1752854703443,36.0,-6.0,101.0,-4.0,-8.0,-1.0,-2.8,0.9,0.8,0.61,-0.7,0.32,-0.2,0.0,0.0,0.0
1752854703484,40.0,-3.0,106.0,-0.0,-8.0,-4.0,1.0,0.5,-0.5,0.56,-0.74,0.31,-0.21,0.0,0.0,0.0
1752854703533,48.0,3.0,113.0,-0.0,-8.0,-5.0,-0.0,0.4,-1.4,0.52,-0.77,0.3,-0.22,0.0,0.0,0.0
1752854703573,55.0,7.0,119.0,2.0,-8.0,-6.0,1.1,0.2,-1.1,0.46,-0.8,0.29,-0.23,0.0,0.0,0.0
1752854703621,59.0,9.0,122.0,2.0,-8.0,-6.0,0.7,0.1,-0.5,0.43,-0.82,0.29,-0.24,0.0,0.0,0.0
1752854703656,63.0,10.0,125.0,1.0,-7.0,-7.0,-0.7,0.3,-1.2,0.4,-0.84,0.29,-0.24,0.0,0.0,0.0
1752854703704,67.0,12.0,128.0,3.0,-8.0,-7.0,0.3,-0.0,-0.6,0.37,-0.85,0.29,-0.25,0.0,0.0,0.0
1752854703736,71.0,13.0,130.0,3.0,-7.0,-7.0,-0.2,-0.1,-0.6,0.35,-0.86,0.28,-0.25,0.0,0.0,0.0
1752854703887,76.0,15.0,132.0,3.0,-7.0,-8.0,0.3,0.1,-1.0,0.33,-0.86,0.28,-0.26,0.0,0.0,0.0
1752854703933,79.0,15.0,136.0,3.0,-7.0,-8.0,1.7,-0.2,-2.0,0.3,-0.87,0.29,-0.25,0.0,0.0,0.0
1752854703968,76.0,13.0,135.0,3.0,-7.0,-8.0,1.0,0.3,-1.5,0.31,-0.87,0.31,-0.24,0.0,0.0,0.0
1752854704013,70.0,10.0,133.0,3.0,-7.0,-8.0,1.1,0.2,-1.2,0.33,-0.86,0.32,-0.23,0.0,0.0,0.0
1752854704049,61.0,6.0,130.0,0.0,-7.0,-6.0,-0.5,0.3,0.4,0.36,-0.84,0.34,-0.21,0.0,0.0,0.0
1752854704088,51.0,1.0,128.0,0.0,-8.0,-7.0,1.0,0.6,-1.2,0.4,-0.82,0.37,-0.19,0.0,0.0,0.0
1752854704137,40.0,-6.0,124.0,-4.0,-7.0,-3.0,-3.0,0.8,2.8,0.43,-0.8,0.39,-0.17,0.0,0.0,0.0
1752854704175,30.0,-12.0,122.0,-1.0,-8.0,-6.0,1.3,0.5,-1.3,0.47,-0.76,0.42,-0.13,0.0,0.0,0.0
1752854704223,26.0,-16.0,121.0,-4.0,-7.0,-4.0,-1.2,0.9,0.5,0.49,-0.74,0.44,-0.11,0.0,0.0,0.0
1752854704257,20.0,-21.0,118.0,-4.0,-8.0,-4.0,0.0,0.4,-0.3,0.52,-0.71,0.47,-0.09,0.0,0.0,0.0
1752854704305,15.0,-26.0,117.0,-3.0,-8.0,-4.0,0.6,1.2,0.4,0.54,-0.68,0.49,-0.07,0.0,0.0,0.0
1752854704337,8.0,-34.0,114.0,-8.0,-6.0,-2.0,-2.2,1.2,1.2,0.57,-0.64,0.52,-0.05,0.0,0.0,0.0
1752854704385,3.0,-40.0,114.0,-5.0,-7.0,-4.0,1.4,0.0,-1.0,0.58,-0.6,0.55,-0.02,0.0,0.0,0.0
1752854704417,0.0,-44.0,113.0,-10.0,-4.0,-1.0,-3.1,1.8,2.0,0.6,-0.55,0.58,-0.0,0.0,0.0,0.0
1752854704462,356.0,-49.0,113.0,-8.0,-5.0,-3.0,0.3,0.4,0.1,0.61,-0.51,0.61,0.02,0.0,0.0,0.0
1752854704496,353.0,-53.0,115.0,-7.0,-4.0,-3.0,-0.9,2.1,0.3,0.61,-0.48,0.63,0.04,0.0,0.0,0.0
1752854704536,351.0,-58.0,116.0,-9.0,-3.0,-2.0,-0.4,1.0,-0.0,0.62,-0.44,0.65,0.05,0.0,0.0,0.0
1752854704577,347.0,-62.0,118.0,-8.0,-3.0,-4.0,1.2,0.9,-2.3,0.62,-0.41,0.66,0.07,0.0,0.0,0.0
1752854704624,346.0,-66.0,118.0,-9.0,-2.0,-2.0,0.2,1.5,-0.3,0.63,-0.38,0.68,0.08,0.0,0.0,0.0
1752854704676,344.0,-70.0,118.0,-10.0,-2.0,-0.0,-0.8,0.3,1.0,0.64,-0.33,0.69,0.09,0.0,0.0,0.0
1752854704705,341.0,-74.0,119.0,-10.0,-2.0,-2.0,-0.3,-0.0,1.0,0.65,-0.3,0.69,0.11,0.0,0.0,0.0
1752854704749,339.0,-78.0,125.0,-10.0,-1.0,-1.0,0.1,0.4,0.1,0.65,-0.26,0.7,0.12,0.0,0.0,0.0
1752854704883,336.0,-81.0,143.0,-10.0,2.0,-1.0,-0.6,0.9,0.6,0.65,-0.23,0.71,0.13,0.0,0.0,0.0
1752854704918,328.0,-81.0,-141.0,-8.0,1.0,-2.0,1.9,-0.0,-0.9,0.64,-0.13,0.74,0.18,0.0,0.0,0.0
1752854704964,327.0,-80.0,-132.0,-10.0,2.0,-1.0,-0.2,0.5,0.3,0.64,-0.11,0.74,0.19,0.0,0.0,0.0
1752854705001,326.0,-78.0,-122.0,-10.0,2.0,-2.0,-0.3,0.4,-0.4,0.64,-0.09,0.74,0.2,0.0,0.0,0.0
1752854705034,325.0,-76.0,-118.0,-9.0,2.0,-1.0,0.6,-0.1,0.0,0.64,-0.07,0.74,0.2,0.0,0.0,0.0
1752854705186,324.0,-75.0,-114.0,-9.0,3.0,-1.0,0.7,-0.0,-0.4,0.63,-0.06,0.74,0.21,0.0,0.0,0.0
1752854705322,319.0,-69.0,-108.0,-9.0,4.0,-2.0,0.2,0.3,-0.6,0.63,-0.03,0.75,0.22,0.0,0.0,0.0
1752854705372,319.0,-69.0,-108.0,-8.0,3.0,-1.0,0.5,0.2,-0.2,0.62,-0.01,0.75,0.23,0.0,0.0,0.0
1752854705406,319.0,-69.0,-108.0,-10.0,4.0,-1.0,-0.4,0.1,-0.4,0.62,-0.01,0.75,0.23,0.0,0.0,0.0
1752854705440,320.0,-69.0,-109.0,-9.0,4.0,-2.0,-0.0,0.3,-0.4,0.62,-0.01,0.75,0.23,0.0,0.0,0.0
1752854705488,321.0,-70.0,-110.0,-10.0,3.0,-2.0,-1.2,0.2,-0.5,0.63,-0.01,0.75,0.23,0.0,0.0,0.0
1752854705525,322.0,-72.0,-109.0,-9.0,4.0,-1.0,-0.6,0.9,0.2,0.63,-0.02,0.74,0.22,0.0,0.0,0.0
1752854705576,326.0,-75.0,-107.0,-12.0,4.0,-2.0,-1.9,1.7,-1.2,0.65,-0.03,0.73,0.2,0.0,0.0,0.0
1752854705719,340.0,-81.0,9.0,-10.0,0.0,1.0,0.6,0.7,-0.2,0.68,-0.07,0.71,0.18,0.0,0.0,0.0
1752854705762,346.0,-76.0,32.0,-4.0,-2.0,-1.0,5.1,-0.3,-3.2,0.77,-0.15,0.62,0.1,0.0,0.0,0.0
1752854705792,351.0,-70.0,36.0,-12.0,1.0,2.0,-3.1,3.0,-1.1,0.79,-0.17,0.58,0.07,0.0,0.0,0.0
1752854705830,357.0,-63.0,36.0,-3.0,-3.0,2.0,5.1,0.4,-1.6,0.82,-0.18,0.54,0.03,0.0,0.0,0.0
1752854705880,2.0,-58.0,37.0,-8.0,-3.0,4.0,-0.4,0.2,0.7,0.85,-0.18,0.5,-0.01,0.0,0.0,0.0
1752854705931,7.0,-52.0,34.0,-8.0,-3.0,6.0,-0.4,0.1,0.9,0.87,-0.17,0.46,-0.06,0.0,0.0,0.0
1752854705961,12.0,-48.0,35.0,-5.0,-4.0,5.0,-0.4,-0.2,-0.6,0.88,-0.17,0.44,-0.09,0.0,0.0,0.0
1752854705998,16.0,-43.0,36.0,-7.0,-4.0,5.0,1.8,-0.8,-0.1,0.88,-0.19,0.42,-0.13,0.0,0.0,0.0
1752854706040,20.0,-39.0,37.0,-5.0,-5.0,6.0,-1.1,0.2,0.6,0.89,-0.2,0.39,-0.16,0.0,0.0,0.0
1752854706494,38.0,-12.0,48.0,-1.0,-8.0,5.0,-0.2,-0.3,-0.4,0.88,-0.26,0.3,-0.25,0.0,0.0,0.0
1752854706529,42.0,-4.0,53.0,-1.0,-8.0,6.0,-0.2,-0.2,-0.1,0.83,-0.4,0.19,-0.32,0.0,0.0,0.0
1752854706563,42.0,-4.0,54.0,-1.0,-8.0,6.0,-1.0,-0.3,0.3,0.83,-0.41,0.2,-0.32,0.0,0.0,0.0
1752854706602,42.0,-3.0,55.0,-1.0,-8.0,6.0,-0.4,-0.1,0.2,0.83,-0.42,0.2,-0.32,0.0,0.0,0.0
1752854706650,42.0,-3.0,57.0,-1.0,-8.0,5.0,0.5,0.2,-1.2,0.82,-0.44,0.2,-0.32,0.0,0.0,0.0
1752854706688,42.0,-3.0,59.0,-2.0,-8.0,4.0,-1.3,0.0,-0.5,0.81,-0.45,0.2,-0.31,0.0,0.0,0.0
1752854706736,41.0,-3.0,60.0,-1.0,-8.0,5.0,-0.1,0.1,-0.4,0.81,-0.46,0.2,-0.31,0.0,0.0,0.0
1752854706770,41.0,-3.0,62.0,-1.0,-9.0,4.0,-0.2,-0.1,-0.2,0.8,-0.47,0.21,-0.3,0.0,0.0,0.0
1752854706916,41.0,-1.0,67.0,-1.0,-9.0,4.0,-0.5,0.4,-0.3,0.78,-0.51,0.2,-0.29,0.0,0.0,0.0
1752854706954,42.0,0.0,69.0,-0.0,-9.0,3.0,-0.8,0.5,-0.6,0.77,-0.53,0.2,-0.29,0.0,0.0,0.0
1752854707191,48.0,8.0,77.0,3.0,-8.0,-1.0,0.9,0.3,-0.8,0.71,-0.6,0.17,-0.32,0.0,0.0,0.0
1752854707237,56.0,14.0,93.0,4.0,-10.0,-3.0,1.8,-0.3,-2.6,0.61,-0.7,0.18,-0.33,0.0,0.0,0.0
1752854707387,57.0,13.0,97.0,3.0,-10.0,1.0,-3.3,-0.3,0.0,0.59,-0.72,0.19,-0.32,0.0,0.0,0.0
1752854707436,50.0,7.0,116.0,1.0,-9.0,-3.0,-0.2,-0.1,1.6,0.48,-0.81,0.25,-0.22,0.0,0.0,0.0
1752854707474,50.0,7.0,122.0,1.0,-8.0,-7.0,-0.5,-0.0,-1.7,0.44,-0.83,0.26,-0.21,0.0,0.0,0.0
1752854707513,49.0,6.0,127.0,0.0,-7.0,-8.0,-0.3,-0.5,-0.9,0.4,-0.85,0.27,-0.18,0.0,0.0,0.0
1752854707548,47.0,4.0,131.0,-0.0,-7.0,-4.0,-0.6,0.2,2.8,0.38,-0.87,0.28,-0.16,0.0,0.0,0.0
1752854707788,218.0,2.0,148.0,-0.0,-4.0,-8.0,-0.2,-0.3,0.4,0.26,-0.91,0.31,-0.11,0.0,0.0,0.0
1752854707839,220.0,0.0,157.0,-0.0,-4.0,-10.0,-0.2,0.1,-1.1,0.19,-0.92,0.34,-0.07,0.0,0.0,0.0
1752854707869,221.0,-0.0,159.0,-0.0,-4.0,-10.0,-0.5,-0.1,-0.1,0.17,-0.92,0.35,-0.06,0.0,0.0,0.0
1752854707907,222.0,-1.0,160.0,-2.0,-3.0,-9.0,-1.5,0.0,0.2,0.17,-0.92,0.36,-0.06,0.0,0.0,0.0
1752854707948,223.0,-1.0,161.0,-0.0,-3.0,-9.0,-0.3,0.3,-0.3,0.16,-0.92,0.36,-0.05,0.0,0.0,0.0
1752854708192,224.0,-1.0,162.0,-1.0,-3.0,-9.0,-0.8,-0.2,0.1,0.15,-0.92,0.37,-0.05,0.0,0.0,0.0
1752854708229,226.0,-2.0,163.0,-1.0,-3.0,-9.0,-0.5,-0.1,0.0,0.15,-0.91,0.39,-0.04,0.0,0.0,0.0
1752854708277,226.0,-3.0,162.0,-1.0,-3.0,-9.0,-0.8,0.0,-0.1,0.15,-0.91,0.39,-0.04,0.0,0.0,0.0
1752854708314,226.0,-3.0,162.0,-1.0,-3.0,-9.0,-1.0,0.1,0.8,0.15,-0.91,0.39,-0.04,0.0,0.0,0.0
1752854708454,227.0,-2.0,158.0,-1.0,-4.0,-9.0,-0.8,-0.1,0.6,0.19,-0.9,0.39,-0.06,0.0,0.0,0.0
1752854708592,227.0,-2.0,152.0,-1.0,-5.0,-9.0,-0.5,-0.5,-0.5,0.23,-0.89,0.39,-0.08,0.0,0.0,0.0
1752854708636,227.0,-2.0,151.0,-1.0,-5.0,-8.0,-0.9,-0.5,0.3,0.24,-0.89,0.39,-0.09,0.0,0.0,0.0
1752854708679,228.0,-2.0,150.0,-0.0,-6.0,-8.0,0.3,-0.6,0.3,0.24,-0.88,0.39,-0.09,0.0,0.0,0.0
1752854708741,228.0,-2.0,150.0,-1.0,-5.0,-9.0,-0.5,-0.0,-0.3,0.25,-0.88,0.39,-0.09,0.0,0.0,0.0
1752854708763,228.0,-2.0,150.0,-1.0,-5.0,-8.0,-0.3,0.0,0.1,0.25,-0.88,0.39,-0.09,0.0,0.0,0.0
1752854708797,228.0,-2.0,149.0,-1.0,-5.0,-8.0,-1.0,0.0,0.1,0.25,-0.88,0.39,-0.09,0.0,0.0,0.0
1752854708840,229.0,-2.0,149.0,-1.0,-5.0,-8.0,-0.6,-0.1,0.4,0.25,-0.88,0.4,-0.09,0.0,0.0,0.0
1752854709290,240.0,-14.0,137.0,-4.0,-7.0,-4.0,-1.0,0.8,0.1,0.25,-0.88,0.4,-0.09,0.0,0.0,0.0
1752854709339,16.0,-23.0,120.0,-7.0,-7.0,-4.0,-2.9,1.2,-0.1,0.51,-0.71,0.48,-0.07,0.0,0.0,0.0
1752854709371,19.0,-23.0,115.0,-4.0,-8.0,-3.0,0.7,-0.1,0.5,0.54,-0.68,0.48,-0.09,0.0,0.0,0.0
1752854709419,23.0,-22.0,110.0,-5.0,-9.0,-4.0,-1.3,0.0,-0.5,0.57,-0.66,0.47,-0.12,0.0,0.0,0.0
1752854709456,26.0,-22.0,105.0,-4.0,-9.0,-1.0,-0.3,-0.5,1.3,0.6,-0.64,0.46,-0.14,0.0,0.0,0.0
1752854709602,36.0,-19.0,90.0,-4.0,-9.0,-0.0,-0.8,0.5,-0.4,0.63,-0.61,0.45,-0.16,0.0,0.0,0.0
1752854709735,37.0,-18.0,88.0,-4.0,-9.0,2.0,-1.4,0.1,0.1,0.68,-0.56,0.42,-0.23,0.0,0.0,0.0
1752854709779,44.0,-14.0,79.0,-1.0,-10.0,2.0,1.9,-0.4,-0.5,0.72,-0.51,0.37,-0.29,0.0,0.0,0.0
1752854709819,45.0,-13.0,76.0,-3.0,-9.0,2.0,-1.2,0.0,-0.5,0.73,-0.5,0.36,-0.3,0.0,0.0,0.0
1752854709854,46.0,-13.0,72.0,-3.0,-9.0,3.0,-0.3,-0.1,-0.3,0.74,-0.47,0.35,-0.31,0.0,0.0,0.0
1752854709904,48.0,-12.0,67.0,-2.0,-9.0,4.0,-0.4,0.2,-0.2,0.76,-0.45,0.34,-0.33,0.0,0.0,0.0
1752854710046,55.0,-8.0,56.0,0.0,-8.0,6.0,2.2,0.6,-0.6,0.76,-0.43,0.33,-0.35,0.0,0.0,0.0
1752854710086,57.0,-7.0,53.0,-4.0,-7.0,6.0,-3.2,0.9,0.0,0.78,-0.36,0.27,-0.43,0.0,0.0,0.0
1752854710123,59.0,-5.0,50.0,0.0,-8.0,6.0,0.0,-0.4,-0.3,0.79,-0.34,0.25,-0.45,0.0,0.0,0.0
1752854710164,61.0,-4.0,48.0,-0.0,-7.0,6.0,-0.9,0.7,-1.0,0.79,-0.33,0.24,-0.46,0.0,0.0,0.0
1752854710411,67.0,-4.0,41.0,-1.0,-7.0,6.0,0.1,-0.1,-1.0,0.79,-0.32,0.22,-0.48,0.0,0.0,0.0
1752854710446,66.0,-5.0,41.0,-2.0,-6.0,7.0,-0.9,-0.0,-0.3,0.78,-0.27,0.23,-0.51,0.0,0.0,0.0
1752854710488,67.0,-5.0,41.0,-2.0,-7.0,7.0,-0.7,-0.3,-0.3,0.78,-0.27,0.23,-0.51,0.0,0.0,0.0
1752854710532,66.0,-6.0,41.0,-2.0,-7.0,8.0,0.2,-0.5,-0.1,0.78,-0.26,0.24,-0.51,0.0,0.0,0.0
1752854710566,66.0,-6.0,41.0,-2.0,-7.0,7.0,-1.2,-0.3,0.1,0.78,-0.26,0.24,-0.51,0.0,0.0,0.0
1752854710609,203.0,-7.0,41.0,-1.0,-7.0,7.0,-0.2,-0.3,-0.3,-0.18,0.13,0.33,-0.92,0.0,0.0,0.0
1752854710646,202.0,-8.0,41.0,-2.0,-7.0,7.0,-0.8,-0.1,-0.3,-0.18,0.14,0.33,-0.92,0.0,0.0,0.0
1752854710893,201.0,-11.0,44.0,-3.0,-7.0,7.0,-0.5,-0.3,-0.4,-0.18,0.14,0.33,-0.92,0.0,0.0,0.0
1752854710939,201.0,-12.0,45.0,-2.0,-7.0,7.0,0.1,-0.2,0.1,-0.16,0.18,0.35,-0.9,0.0,0.0,0.0
1752854710977,200.0,-13.0,46.0,-4.0,-7.0,7.0,-2.5,0.6,0.7,-0.16,0.19,0.36,-0.9,0.0,0.0,0.0
1752854711013,200.0,-13.0,49.0,-1.0,-8.0,4.0,0.4,-0.4,-2.0,-0.15,0.19,0.38,-0.89,0.0,0.0,0.0
1752854711055,200.0,-13.0,51.0,-3.0,-8.0,7.0,-0.4,-0.1,0.7,-0.16,0.2,0.39,-0.89,0.0,0.0,0.0
1752854711102,200.0,-13.0,53.0,-3.0,-7.0,4.0,-0.4,0.1,-1.6,-0.15,0.2,0.4,-0.88,0.0,0.0,0.0
1752854711143,201.0,-13.0,55.0,-2.0,-8.0,4.0,0.2,-0.1,-0.7,-0.16,0.21,0.42,-0.87,0.0,0.0,0.0
1752854711192,201.0,-12.0,57.0,-3.0,-8.0,5.0,-1.5,0.2,-0.4,-0.16,0.21,0.44,-0.86,0.0,0.0,0.0
1752854711340,203.0,-8.0,65.0,-1.0,-9.0,4.0,0.1,-0.0,0.5,-0.17,0.19,0.51,-0.83,0.0,0.0,0.0
1752854711381,204.0,-7.0,68.0,-1.0,-9.0,2.0,-0.2,-0.1,-1.8,-0.17,0.19,0.53,-0.81,0.0,0.0,0.0
1752854711423,204.0,-6.0,71.0,-1.0,-10.0,3.0,-0.1,-0.2,0.4,-0.17,0.19,0.55,-0.79,0.0,0.0,0.0
1752854711458,203.0,-6.0,74.0,-2.0,-9.0,3.0,-0.9,0.2,0.0,-0.16,0.19,0.57,-0.79,0.0,0.0,0.0
1752854711507,204.0,-5.0,77.0,-1.0,-9.0,1.0,-0.6,0.1,-0.6,-0.16,0.19,0.59,-0.77,0.0,0.0,0.0
1752854711540,204.0,-4.0,79.0,0.0,-10.0,1.0,1.1,-0.5,-0.8,-0.16,0.18,0.61,-0.76,0.0,0.0,0.0
1752854711588,205.0,-3.0,81.0,0.0,-10.0,1.0,-0.6,-0.2,-0.0,-0.17,0.18,0.63,-0.74,0.0,0.0,0.0
1752854711615,205.0,-3.0,83.0,-3.0,-9.0,2.0,-1.5,-0.0,0.6,-0.16,0.18,0.64,-0.73,0.0,0.0,0.0
1752854711757,208.0,-2.0,90.0,-0.0,-10.0,-1.0,-0.3,0.3,-0.8,-0.17,0.19,0.68,-0.68,0.0,0.0,0.0
1752854711807,208.0,-2.0,92.0,-1.0,-10.0,-1.0,-0.9,0.3,-0.7,-0.17,0.2,0.69,-0.67,0.0,0.0,0.0
1752854711853,208.0,-2.0,94.0,-1.0,-10.0,-1.0,-1.4,0.3,-0.3,-0.17,0.2,0.7,-0.67,0.0,0.0,0.0
1752854711890,208.0,-2.0,95.0,0.0,-10.0,-1.0,0.3,-0.1,-0.5,-0.17,0.2,0.71,-0.66,0.0,0.0,0.0
1752854711931,209.0,-1.0,96.0,0.0,-10.0,-2.0,0.0,-0.2,-0.4,-0.17,0.19,0.72,-0.65,0.0,0.0,0.0
1752854711966,209.0,-0.0,97.0,-1.0,-10.0,-1.0,-0.7,-0.0,-0.4,-0.16,0.19,0.72,-0.64,0.0,0.0,0.0
1752854712008,208.0,-0.0,98.0,0.0,-10.0,-2.0,0.1,0.0,-1.0,-0.16,0.19,0.73,-0.64,0.0,0.0,0.0
1752854712055,208.0,-0.0,98.0,-1.0,-10.0,-1.0,-0.7,0.0,0.0,-0.16,0.19,0.73,-0.64,0.0,0.0,0.0
1752854712091,208.0,-0.0,98.0,-0.0,-10.0,-2.0,-0.1,-0.1,-0.3,-0.16,0.19,0.73,-0.64,0.0,0.0,0.0
1752854712132,207.0,-0.0,98.0,0.0,-10.0,-2.0,0.3,-0.0,-0.5,-0.15,0.18,0.73,-0.64,0.0,0.0,0.0
1752854712174,207.0,-1.0,98.0,-1.0,-10.0,-2.0,-0.4,-0.0,-0.3,-0.15,0.18,0.74,-0.64,0.0,0.0,0.0
1752854712207,206.0,-1.0,98.0,-1.0,-10.0,-2.0,-0.4,-0.2,-0.0,-0.15,0.18,0.74,-0.64,0.0,0.0,0.0
1752854712259,205.0,-1.0,99.0,-0.0,-10.0,-3.0,-0.1,-0.1,-1.2,-0.14,0.18,0.74,-0.64,0.0,0.0,0.0
1752854712409,202.0,-1.0,101.0,0.0,-10.0,-3.0,-0.8,-0.0,-0.0,-0.13,0.16,0.75,-0.63,0.0,0.0,0.0
1752854712459,200.0,-1.0,101.0,-1.0,-9.0,-2.0,-0.9,0.1,0.2,-0.12,0.16,0.75,-0.63,0.0,0.0,0.0
1752854712493,200.0,-1.0,102.0,-1.0,-10.0,-1.0,-0.8,0.0,0.7,-0.11,0.15,0.76,-0.62,0.0,0.0,0.0
1752854712533,199.0,-1.0,104.0,0.0,-10.0,-3.0,0.4,-0.1,-0.8,-0.1,0.14,0.77,-0.61,0.0,0.0,0.0
1752854712576,198.0,-1.0,106.0,-0.0,-9.0,-3.0,-0.4,0.1,0.2,-0.1,0.14,0.79,-0.6,0.0,0.0,0.0
1752854712609,197.0,-0.0,109.0,0.0,-9.0,-4.0,0.1,-0.2,-0.4,-0.09,0.13,0.8,-0.58,0.0,0.0,0.0
1752854712666,196.0,-1.0,111.0,-0.0,-9.0,-4.0,-0.2,-0.1,-0.8,-0.08,0.13,0.81,-0.57,0.0,0.0,0.0
1752854712695,195.0,-2.0,112.0,-1.0,-9.0,-4.0,-0.4,0.0,-0.2,-0.07,0.13,0.82,-0.56,0.0,0.0,0.0
1752854712747,193.0,-3.0,113.0,-1.0,-9.0,-4.0,-1.1,0.1,0.4,-0.06,0.13,0.82,-0.55,0.0,0.0,0.0
1752854712884,187.0,-4.0,117.0,-2.0,-8.0,-4.0,-1.0,0.3,0.4,-0.03,0.12,0.85,-0.52,0.0,0.0,0.0
1752854712920,185.0,-5.0,118.0,-1.0,-9.0,-5.0,0.3,-0.0,-0.7,-0.02,0.12,0.85,-0.51,0.0,0.0,0.0
1752854712968,183.0,-5.0,119.0,-2.0,-8.0,-5.0,-1.0,0.2,-0.0,-0.02,0.12,0.85,-0.51,0.0,0.0,0.0
1752854713006,181.0,-6.0,120.0,-2.0,-8.0,-5.0,-1.1,0.0,0.3,-0.01,0.12,0.86,-0.5,0.0,0.0,0.0
1752854713058,181.0,-6.0,120.0,-1.0,-8.0,-5.0,0.1,0.3,-0.1,-0.0,0.11,0.86,-0.5,0.0,0.0,0.0
1752854713083,179.0,-7.0,121.0,-1.0,-8.0,-6.0,-0.3,1.2,-0.8,0.0,0.11,0.86,-0.49,0.0,0.0,0.0
1752854713123,177.0,-8.0,121.0,-2.0,-7.0,-4.0,0.2,1.3,0.9,0.01,0.11,0.86,-0.49,0.0,0.0,0.0
1752854713161,173.0,-9.0,122.0,-0.0,-7.0,-8.0,1.5,1.5,-2.7,0.03,0.11,0.86,-0.49,0.0,0.0,0.0
1752854713208,168.0,-12.0,122.0,-3.0,-7.0,-6.0,-0.7,0.9,-0.6,0.04,0.13,0.86,-0.49,0.0,0.0,0.0
1752854713246,164.0,-15.0,120.0,-4.0,-8.0,-3.0,-1.7,0.3,1.5,0.07,0.14,0.85,-0.5,0.0,0.0,0.0
1752854713297,161.0,-17.0,119.0,-4.0,-8.0,-3.0,-1.4,0.4,1.5,0.09,0.14,0.84,-0.51,0.0,0.0,0.0
1752854713321,158.0,-17.0,120.0,-4.0,-9.0,-4.0,-0.7,-0.9,0.3,0.09,0.13,0.85,-0.5,0.0,0.0,0.0
1752854713465,157.0,-17.0,121.0,-4.0,-8.0,-6.0,-0.2,0.2,-1.0,0.1,0.12,0.86,-0.49,0.0,0.0,0.0
1752854713512,143.0,-23.0,122.0,-6.0,-7.0,-5.0,-2.0,0.3,0.3,0.15,0.12,0.86,-0.48,0.0,0.0,0.0
1752854713548,138.0,-25.0,122.0,-3.0,-8.0,-4.0,1.7,0.0,0.4,0.18,0.11,0.85,-0.48,0.0,0.0,0.0
1752854713598,133.0,-27.0,122.0,-5.0,-7.0,-2.0,-1.1,0.7,1.3,0.21,0.11,0.85,-0.47,0.0,0.0,0.0
1752854713632,128.0,-28.0,124.0,-7.0,-7.0,-6.0,-1.4,-0.3,-1.9,0.22,0.1,0.86,-0.46,0.0,0.0,0.0
1752854713662,124.0,-29.0,125.0,-7.0,-9.0,-6.0,-2.4,-1.5,-0.9,0.24,0.09,0.86,-0.44,0.0,0.0,0.0
1752854713711,122.0,-29.0,125.0,-6.0,-9.0,-2.0,-1.2,-2.2,2.6,0.24,0.08,0.86,-0.44,0.0,0.0,0.0
1752854713749,123.0,-28.0,126.0,-5.0,-8.0,-2.0,-0.2,-0.8,3.6,0.23,0.07,0.87,-0.43,0.0,0.0,0.0
1752854713795,122.0,-26.0,133.0,-4.0,-7.0,-5.0,1.1,0.0,-0.0,0.21,0.07,0.9,-0.39,0.0,0.0,0.0
1752854713823,9.0,-24.0,142.0,-3.0,-5.0,-7.0,0.0,0.3,1.3,0.19,0.07,0.92,-0.32,0.0,0.0,0.0
1752854713866,12.0,-22.0,155.0,-5.0,-1.0,-7.0,-1.2,2.1,1.5,0.18,0.09,0.95,-0.25,0.0,0.0,0.0
1752854713915,14.0,-19.0,165.0,-3.0,-1.0,-11.0,-0.8,1.2,-1.9,0.16,0.11,0.97,-0.17,0.0,0.0,0.0
1752854714057,13.0,-13.0,178.0,-2.0,0.0,-9.0,0.5,0.2,0.3,0.11,0.11,0.99,-0.03,0.0,0.0,0.0
1752854714097,12.0,-13.0,179.0,-2.0,0.0,-10.0,0.2,0.1,-0.5,0.11,0.11,0.99,-0.02,0.0,0.0,0.0
1752854714133,12.0,-13.0,180.0,-3.0,0.0,-9.0,-0.8,0.0,0.7,0.11,0.11,0.99,-0.01,0.0,0.0,0.0
1752854714180,12.0,-13.0,180.0,-2.0,-0.0,-9.0,-0.1,-0.1,0.3,0.11,0.1,0.99,-0.01,0.0,0.0,0.0
1752854714213,12.0,-13.0,-180.0,-2.0,-0.0,-10.0,0.1,0.0,-0.4,0.11,0.1,0.99,-0.01,0.0,0.0,0.0
1752854714355,14.0,-17.0,178.0,-4.0,-0.0,-9.0,-0.6,-0.0,-0.1,0.14,0.12,0.98,-0.03,0.0,0.0,0.0
1752854714403,15.0,-20.0,177.0,-4.0,-1.0,-9.0,-0.4,-0.0,0.1,0.17,0.13,0.98,-0.05,0.0,0.0,0.0
1752854714435,17.0,-23.0,175.0,-4.0,-1.0,-9.0,0.3,-0.3,-0.5,0.19,0.14,0.97,-0.07,0.0,0.0,0.0
1752854714474,19.0,-27.0,173.0,-4.0,-1.0,-9.0,0.6,-0.2,-0.5,0.22,0.16,0.96,-0.09,0.0,0.0,0.0
1752854714512,21.0,-32.0,171.0,-6.0,-2.0,-8.0,-0.0,-0.3,0.0,0.26,0.17,0.94,-0.12,0.0,0.0,0.0
1752854714673,59.0,-54.0,161.0,-8.0,-1.0,-4.0,0.3,0.2,0.8,0.4,0.24,0.86,-0.22,0.0,0.0,0.0
1752854714706,60.0,-58.0,159.0,-9.0,-2.0,-4.0,-0.4,-0.0,1.0,0.43,0.26,0.83,-0.25,0.0,0.0,0.0
1752854714748,61.0,-61.0,158.0,-9.0,-2.0,-3.0,-0.2,0.0,0.7,0.45,0.28,0.8,-0.27,0.0,0.0,0.0
1752854714794,63.0,-66.0,156.0,-9.0,-1.0,-2.0,-0.5,0.1,1.8,0.47,0.3,0.78,-0.29,0.0,0.0,0.0
1752854714836,64.0,-69.0,155.0,-9.0,-1.0,-3.0,1.0,0.3,0.1,0.49,0.31,0.75,-0.31,0.0,0.0,0.0
1752854714884,65.0,-71.0,155.0,-9.0,-1.0,-2.0,0.1,0.5,0.4,0.5,0.33,0.73,-0.32,0.0,0.0,0.0
1752854714915,65.0,-74.0,156.0,-10.0,-1.0,-1.0,-0.1,0.1,1.0,0.52,0.34,0.71,-0.33,0.0,0.0,0.0
1752854714961,64.0,-77.0,158.0,-10.0,-0.0,-1.0,-0.4,0.5,1.5,0.53,0.36,0.69,-0.33,0.0,0.0,0.0
1752854714999,64.0,-78.0,159.0,-9.0,-0.0,-1.0,0.3,0.2,0.9,0.54,0.36,0.68,-0.34,0.0,0.0,0.0
1752854715037,64.0,-79.0,161.0,-10.0,-0.0,-1.0,0.1,0.3,0.3,0.54,0.36,0.68,-0.34,0.0,0.0,0.0
1752854715080,63.0,-79.0,163.0,-10.0,-0.0,-1.0,-0.4,0.3,0.8,0.55,0.37,0.67,-0.34,0.0,0.0,0.0
1752854715120,63.0,-80.0,162.0,-10.0,-0.0,-0.0,-0.3,0.1,1.6,0.55,0.37,0.67,-0.34,0.0,0.0,0.0
1752854715170,64.0,-80.0,160.0,-10.0,-0.0,0.0,-0.4,0.5,1.7,0.55,0.36,0.67,-0.34,0.0,0.0,0.0
1752854715200,64.0,-79.0,158.0,-11.0,0.0,0.0,-1.7,1.0,2.2,0.54,0.36,0.68,-0.34,0.0,0.0,0.0
1752854715245,65.0,-74.0,153.0,-10.0,-0.0,0.0,-1.5,2.1,2.8,0.52,0.34,0.71,-0.33,0.0,0.0,0.0
1752854715491,5.0,-18.0,152.0,-1.0,-6.0,-8.0,2.2,-1.6,-1.8,0.15,0.04,0.96,-0.24,0.0,0.0,0.0
1752854715524,4.0,-14.0,151.0,-3.0,-4.0,-9.0,-1.6,-0.9,1.6,0.11,0.03,0.96,-0.25,0.0,0.0,0.0
1752854715572,2.0,-11.0,150.0,-2.0,-6.0,-9.0,0.2,-0.8,-0.3,0.1,0.02,0.96,-0.26,0.0,0.0,0.0
1752854715608,1.0,-8.0,148.0,-2.0,-6.0,-7.0,-0.3,-0.5,0.8,0.08,0.01,0.96,-0.27,0.0,0.0,0.0
1752854715658,1.0,-7.0,147.0,-1.0,-5.0,-8.0,0.1,0.0,0.6,0.06,0.01,0.96,-0.28,0.0,0.0,0.0
1752854715691,1.0,-5.0,147.0,-1.0,-6.0,-8.0,0.1,-0.6,0.3,0.04,0.01,0.96,-0.28,0.0,0.0,0.0
1752854715725,2.0,-3.0,147.0,-2.0,-6.0,-8.0,1.0,-0.4,-1.0,0.02,0.01,0.96,-0.28,0.0,0.0,0.0
1752854715771,2.0,-1.0,148.0,0.0,-6.0,-8.0,0.3,-0.1,-0.5,0.01,0.02,0.96,-0.28,0.0,0.0,0.0
1752854715809,3.0,-0.0,147.0,-1.0,-5.0,-9.0,-0.7,-0.0,-0.8,-0.0,0.02,0.96,-0.28,0.0,0.0,0.0
1752854715858,4.0,-1.0,147.0,-0.0,-6.0,-9.0,0.1,-0.1,-0.8,-0.0,0.03,0.96,-0.28,0.0,0.0,0.0
1752854715890,5.0,-2.0,146.0,-2.0,-6.0,-7.0,-1.2,-0.2,0.5,0.0,0.04,0.95,-0.29,0.0,0.0,0.0
1752854715926,6.0,-3.0,144.0,-1.0,-6.0,-7.0,-0.7,0.0,0.6,0.02,0.05,0.95,-0.31,0.0,0.0,0.0
1752854715975,6.0,-4.0,143.0,-2.0,-6.0,-7.0,-0.4,-0.2,-0.0,0.02,0.05,0.95,-0.32,0.0,0.0,0.0
1752854716016,7.0,-5.0,142.0,-1.0,-6.0,-7.0,-0.4,-0.0,0.2,0.03,0.05,0.94,-0.33,0.0,0.0,0.0
1752854716259,10.0,-11.0,138.0,-2.0,-7.0,-7.0,2.3,-0.9,-1.7,0.03,0.06,0.94,-0.34,0.0,0.0,0.0
1752854716408,142.0,-22.0,129.0,-7.0,1.0,-2.0,1.6,5.5,0.1,0.15,0.13,0.88,-0.43,0.0,0.0,0.0
1752854716444,104.0,-68.0,114.0,-15.0,5.0,6.0,-15.5,11.2,12.4,0.4,0.4,0.65,-0.51,0.0,0.0,0.0
1752854716478,93.0,-82.0,108.0,-30.0,8.0,11.0,-15.6,8.5,10.6,0.48,0.46,0.56,-0.5,0.0,0.0,0.0
1752854716524,91.0,-76.0,107.0,-12.0,7.0,4.0,-3.3,12.0,4.7,0.48,0.39,0.62,-0.49,0.0,0.0,0.0
1752854716561,108.0,-51.0,121.0,-2.0,0.0,-1.0,5.3,5.9,2.6,0.38,0.29,0.74,-0.48,0.0,0.0,0.0
1752854716611,123.0,-35.0,125.0,-2.0,0.0,-3.0,2.1,7.0,2.4,0.25,0.18,0.84,-0.45,0.0,0.0,0.0
1752854716641,149.0,-16.0,131.0,7.0,-2.0,-7.0,9.4,2.7,-2.6,0.12,0.07,0.9,-0.42,0.0,0.0,0.0
1752854716680,359.0,0.0,135.0,8.0,-7.0,-12.0,8.0,-1.5,-4.2,0.0,-0.01,0.93,-0.38,0.0,0.0,0.0
1752854716751,355.0,9.0,136.0,11.0,-9.0,-9.0,8.2,-1.6,-2.4,-0.07,-0.04,0.92,-0.37,0.0,0.0,0.0
1752854716763,197.0,7.0,133.0,6.0,-8.0,-10.0,5.4,-0.3,-3.4,-0.07,-0.03,0.92,-0.39,0.0,0.0,0.0
1752854717009,124.0,-47.0,111.0,-10.0,1.0,1.0,-7.1,2.5,7.2,-0.02,0.03,0.91,-0.42,0.0,0.0,0.0
1752854717054,110.0,-64.0,94.0,-14.0,0.0,5.0,-5.4,5.4,5.8,0.4,0.34,0.63,-0.57,0.0,0.0,0.0
1752854717092,117.0,-51.0,105.0,-8.0,-1.0,-2.0,3.3,4.4,0.3,0.34,0.27,0.71,-0.55,0.0,0.0,0.0
1752854717130,127.0,-37.0,113.0,-3.0,-4.0,-4.0,0.2,4.2,0.0,0.26,0.18,0.79,-0.52,0.0,0.0,0.0
1752854717175,140.0,-25.0,119.0,-3.0,-5.0,-4.0,1.7,3.1,0.4,0.18,0.11,0.84,-0.5,0.0,0.0,0.0
1752854717316,169.0,-4.0,127.0,-1.0,-9.0,-6.0,-0.2,-0.8,-0.0,0.04,-0.01,0.9,-0.44,0.0,0.0,0.0
1752854717355,166.0,-6.0,127.0,-3.0,-8.0,-5.0,-1.6,-0.3,0.9,0.06,0.0,0.89,-0.44,0.0,0.0,0.0
1752854717408,162.0,-8.0,127.0,-3.0,-8.0,-5.0,-1.6,-0.1,0.0,0.07,0.01,0.89,-0.45,0.0,0.0,0.0
1752854717455,160.0,-9.0,127.0,-2.0,-8.0,-6.0,-0.5,-0.1,-0.2,0.08,0.02,0.89,-0.44,0.0,0.0,0.0
1752854717488,158.0,-10.0,127.0,-2.0,-8.0,-6.0,-0.7,0.1,0.5,0.09,0.02,0.89,-0.45,0.0,0.0,0.0
1752854717524,156.0,-11.0,126.0,-2.0,-8.0,-5.0,-0.4,0.1,0.1,0.09,0.03,0.89,-0.45,0.0,0.0,0.0
1752854717566,154.0,-13.0,125.0,-2.0,-8.0,-6.0,0.5,0.2,-0.3,0.1,0.03,0.88,-0.45,0.0,0.0,0.0
1752854717608,152.0,-14.0,124.0,-3.0,-7.0,-5.0,-0.7,0.4,0.7,0.12,0.05,0.88,-0.46,0.0,0.0,0.0
1752854717649,148.0,-17.0,123.0,-5.0,-8.0,-4.0,-2.0,-0.1,0.7,0.13,0.06,0.87,-0.47,0.0,0.0,0.0
1752854717684,145.0,-19.0,122.0,-4.0,-8.0,-5.0,-1.1,-0.3,0.6,0.15,0.07,0.87,-0.47,0.0,0.0,0.0
1752854717725,142.0,-20.0,121.0,-5.0,-8.0,-3.0,-1.3,0.0,1.4,0.16,0.07,0.86,-0.48,0.0,0.0,0.0
1752854717772,141.0,-22.0,121.0,-5.0,-8.0,-4.0,-1.1,0.1,0.6,0.17,0.07,0.86,-0.48,0.0,0.0,0.0
1752854717825,139.0,-23.0,121.0,-5.0,-7.0,-4.0,-1.5,0.5,0.7,0.18,0.08,0.85,-0.48,0.0,0.0,0.0
1752854718072,138.0,-24.0,120.0,-6.0,-8.0,-4.0,-0.6,0.1,0.4,0.19,0.09,0.85,-0.48,0.0,0.0,0.0
1752854718438,145.0,-25.0,118.0,-4.0,-8.0,-4.0,-0.2,-0.2,0.3,0.16,0.14,0.83,-0.51,0.0,0.0,0.0
1752854718476,145.0,-25.0,117.0,-5.0,-8.0,-4.0,-0.4,-0.0,0.3,0.16,0.15,0.83,-0.51,0.0,0.0,0.0
1752854718626,144.0,-25.0,117.0,-5.0,-8.0,-4.0,-0.4,0.1,0.1,0.17,0.15,0.83,-0.52,0.0,0.0,0.0
1752854718668,143.0,-26.0,117.0,-5.0,-8.0,-4.0,-0.7,0.2,0.3,0.17,0.15,0.82,-0.52,0.0,0.0,0.0
1752854718715,143.0,-26.0,117.0,-5.0,-8.0,-4.0,-0.2,0.0,0.0,0.17,0.15,0.82,-0.52,0.0,0.0,0.0
1752854718958,144.0,-26.0,116.0,-5.0,-8.0,-4.0,-0.4,0.0,0.1,0.17,0.16,0.82,-0.52,0.0,0.0,0.0
1752854719015,144.0,-26.0,116.0,-5.0,-8.0,-4.0,-0.2,-0.1,0.2,0.17,0.16,0.82,-0.53,0.0,0.0,0.0
1752854719164,145.0,-26.0,115.0,-5.0,-8.0,-4.0,-0.2,0.1,-0.1,0.17,0.16,0.82,-0.53,0.0,0.0,0.0
1752854719217,144.0,-26.0,116.0,-4.0,-8.0,-4.0,-0.1,0.1,-0.1,0.17,0.16,0.82,-0.53,0.0,0.0,0.0
1752854719259,144.0,-27.0,115.0,-4.0,-8.0,-4.0,0.3,-0.1,-0.4,0.17,0.16,0.82,-0.53,0.0,0.0,0.0
1752854719303,143.0,-28.0,114.0,-3.0,-8.0,-5.0,1.4,-0.5,-1.0,0.18,0.16,0.81,-0.53,0.0,0.0,0.0
1752854719338,143.0,-29.0,113.0,-3.0,-8.0,-4.0,1.7,-0.9,-0.3,0.18,0.17,0.8,-0.54,0.0,0.0,0.0
1752854719389,141.0,-32.0,111.0,-6.0,-8.0,-1.0,-0.9,0.3,1.3,0.19,0.2,0.78,-0.55,0.0,0.0,0.0
1752854719423,138.0,-35.0,111.0,-7.0,-7.0,-1.0,-1.7,0.7,1.3,0.21,0.22,0.77,-0.56,0.0,0.0,0.0
1752854719573,133.0,-37.0,112.0,-5.0,-7.0,-4.0,0.6,-0.1,-0.6,0.23,0.23,0.77,-0.55,0.0,0.0,0.0
1752854719626,132.0,-36.0,113.0,-4.0,-8.0,-4.0,1.8,-0.3,-1.2,0.24,0.2,0.79,-0.54,0.0,0.0,0.0
1752854719659,132.0,-37.0,112.0,-5.0,-8.0,-3.0,-0.3,-0.7,1.3,0.24,0.21,0.78,-0.54,0.0,0.0,0.0
1752854719706,130.0,-39.0,111.0,-7.0,-7.0,-1.0,-1.0,0.2,1.8,0.26,0.21,0.77,-0.54,0.0,0.0,0.0
1752854719743,127.0,-40.0,111.0,-9.0,-7.0,-2.0,-2.9,0.5,1.1,0.27,0.21,0.77,-0.54,0.0,0.0,0.0
1752854719784,126.0,-39.0,112.0,-7.0,-6.0,-2.0,-1.1,0.8,0.6,0.27,0.2,0.78,-0.53,0.0,0.0,0.0
1752854719827,128.0,-37.0,114.0,-7.0,-7.0,-3.0,-0.8,0.3,0.1,0.26,0.2,0.79,-0.53,0.0,0.0,0.0
1752854719867,129.0,-37.0,115.0,-8.0,-7.0,-2.0,-2.2,-0.1,1.8,0.25,0.2,0.79,-0.52,0.0,0.0,0.0
1752854720101,117.0,-47.0,115.0,-19.0,-2.0,11.0,-18.0,2.8,14.1,0.24,0.19,0.8,-0.51,0.0,0.0,0.0
1752854720144,117.0,-47.0,111.0,-13.0,-5.0,3.0,-1.8,3.3,3.9,0.32,0.24,0.75,-0.52,0.0,0.0,0.0
1752854720178,123.0,-35.0,116.0,-5.0,-7.0,-1.0,1.6,0.1,3.4,0.27,0.14,0.81,-0.5,0.0,0.0,0.0
1752854720227,136.0,-23.0,124.0,-5.0,-6.0,-2.0,-1.7,1.3,3.5,0.2,0.08,0.86,-0.47,0.0,0.0,0.0
1752854720260,145.0,-17.0,129.0,-1.0,-5.0,-5.0,0.8,2.5,2.0,0.13,0.06,0.89,-0.42,0.0,0.0,0.0
1752854720301,5.0,-7.0,137.0,3.0,-4.0,-8.0,5.4,2.2,-2.5,0.05,0.04,0.93,-0.37,0.0,0.0,0.0
1752854720344,3.0,3.0,142.0,8.0,-5.0,-15.0,6.6,0.7,-4.8,-0.04,0.03,0.94,-0.33,0.0,0.0,0.0
1752854720378,3.0,9.0,142.0,11.0,-7.0,-11.0,10.1,0.6,-6.4,-0.09,0.03,0.94,-0.32,0.0,0.0,0.0
1752854720427,7.0,7.0,137.0,8.0,-6.0,-10.0,5.5,1.9,-1.9,-0.1,0.05,0.93,-0.35,0.0,0.0,0.0
1752854720478,188.0,-4.0,130.0,3.0,-5.0,-7.0,3.9,2.8,-1.2,-0.05,0.12,0.9,-0.41,0.0,0.0,0.0
1752854720528,172.0,-13.0,126.0,-3.0,-4.0,-2.0,0.6,3.3,2.6,0.03,0.18,0.87,-0.46,0.0,0.0,0.0
1752854720553,153.0,-27.0,120.0,-4.0,-4.0,-3.0,0.7,2.7,1.5,0.12,0.24,0.81,-0.51,0.0,0.0,0.0
1752854720595,139.0,-39.0,114.0,-7.0,-2.0,1.0,-1.3,1.3,4.8,0.2,0.29,0.76,-0.55,0.0,0.0,0.0
1752854720637,126.0,-53.0,105.0,-13.0,-3.0,3.0,-4.9,2.6,3.9,0.28,0.33,0.69,-0.57,0.0,0.0,0.0
1752854720680,119.0,-59.0,99.0,-11.0,-3.0,2.0,-2.0,2.2,2.4,0.33,0.35,0.65,-0.58,0.0,0.0,0.0
1752854720823,115.0,-63.0,93.0,-11.0,-4.0,3.0,-1.9,-0.0,2.3,0.37,0.36,0.62,-0.59,0.0,0.0,0.0
1752854720868,112.0,-67.0,84.0,-7.0,-5.0,0.0,0.4,-0.7,-0.0,0.4,0.38,0.58,-0.6,0.0,0.0,0.0
1752854720910,112.0,-66.0,87.0,-9.0,-4.0,-0.0,0.3,0.3,-0.3,0.4,0.37,0.59,-0.59,0.0,0.0,0.0
1752854720953,112.0,-66.0,88.0,-9.0,-4.0,0.0,-0.3,0.6,0.6,0.4,0.37,0.6,-0.59,0.0,0.0,0.0
1752854720992,111.0,-65.0,88.0,-9.0,-4.0,0.0,-0.5,0.1,0.3,0.4,0.36,0.6,-0.59,0.0,0.0,0.0
1752854721032,111.0,-64.0,89.0,-9.0,-4.0,0.0,0.2,-0.1,-0.0,0.4,0.35,0.61,-0.59,0.0,0.0,0.0
1752854721079,111.0,-64.0,90.0,-16.0,-3.0,8.0,-7.7,2.0,8.5,0.4,0.35,0.61,-0.58,0.0,0.0,0.0
1752854721226,145.0,-21.0,126.0,-1.0,-5.0,-4.0,1.8,2.7,1.2,0.17,0.13,0.86,-0.46,0.0,0.0,0.0
1752854721273,155.0,-14.0,131.0,2.0,-5.0,-8.0,3.1,1.2,-0.3,0.09,0.09,0.9,-0.42,0.0,0.0,0.0
1752854721316,5.0,-3.0,138.0,5.0,-5.0,-9.0,4.5,1.2,-1.8,0.01,0.04,0.93,-0.36,0.0,0.0,0.0
1752854721363,2.0,3.0,143.0,7.0,-6.0,-11.0,6.0,0.9,-4.9,-0.04,0.02,0.95,-0.32,0.0,0.0,0.0
1752854721402,1.0,5.0,145.0,5.0,-5.0,-10.0,3.7,0.4,-2.5,-0.05,0.01,0.95,-0.3,0.0,0.0,0.0
1752854721437,4.0,3.0,144.0,2.0,-5.0,-9.0,2.0,1.1,-1.5,-0.04,0.02,0.95,-0.31,0.0,0.0,0.0
1752854721480,7.0,0.0,142.0,3.0,-5.0,-12.0,3.3,1.1,-3.8,-0.03,0.05,0.95,-0.32,0.0,0.0,0.0
1752854721632,10.0,-3.0,140.0,-2.0,-3.0,-6.0,4.4,4.3,-2.4,-0.0,0.08,0.94,-0.34,0.0,0.0,0.0
1752854721767,127.0,-47.0,113.0,-3.0,2.0,-0.0,-23.5,10.0,15.6,0.25,0.29,0.76,-0.52,0.0,0.0,0.0
1752854721808,103.0,-78.0,34.0,-14.0,8.0,10.0,-2.6,13.5,6.1,0.47,0.46,0.46,-0.6,0.0,0.0,0.0
1752854721851,116.0,-61.0,101.0,-5.0,12.0,10.0,9.1,18.4,10.3,0.36,0.36,0.65,-0.57,0.0,0.0,0.0
1752854721885,133.0,-32.0,125.0,6.0,12.0,0.0,11.4,20.9,4.2,0.2,0.21,0.84,-0.46,0.0,0.0,0.0
1752854721927,2.0,1.0,150.0,19.0,4.0,-17.0,18.2,8.0,-8.3,0.03,0.04,0.95,-0.3,0.0,0.0,0.0
1752854721971,356.0,14.0,160.0,17.0,-2.0,-26.0,14.3,0.8,-16.7,-0.12,-0.04,0.98,-0.17,0.0,0.0,0.0
1752854722019,358.0,16.0,158.0,12.0,-1.0,-13.0,6.7,4.3,-3.0,-0.14,-0.02,0.97,-0.19,0.0,0.0,0.0
1752854722056,12.0,-1.0,144.0,8.0,5.0,-11.0,9.6,11.5,-3.9,-0.05,0.07,0.96,-0.28,0.0,0.0,0.0
1752854722090,147.0,-26.0,128.0,-0.0,10.0,5.0,5.1,16.4,9.6,0.09,0.2,0.88,-0.41,0.0,0.0,0.0
1752854722142,124.0,-54.0,110.0,-15.0,3.0,8.0,-3.7,9.5,2.7,0.26,0.33,0.73,-0.54,0.0,0.0,0.0
1752854722176,117.0,-70.0,79.0,-20.0,0.0,10.0,-6.6,4.2,10.2,0.37,0.42,0.57,-0.61,0.0,0.0,0.0
1752854722228,116.0,-74.0,49.0,-16.0,-2.0,11.0,-7.0,0.4,9.1,0.41,0.46,0.45,-0.65,0.0,0.0,0.0
1752854722262,118.0,-72.0,58.0,-6.0,-3.0,-0.0,1.6,-0.4,-0.8,0.4,0.45,0.46,-0.66,0.0,0.0,0.0
1752854722297,119.0,-70.0,70.0,-7.0,-7.0,-2.0,2.6,-3.9,-3.0,0.38,0.43,0.5,-0.65,0.0,0.0,0.0
1752854722339,119.0,-69.0,73.0,-10.0,-2.0,1.0,-0.4,0.9,-0.3,0.38,0.42,0.52,-0.64,0.0,0.0,0.0
1752854722383,118.0,-69.0,70.0,-11.0,-3.0,2.0,-1.4,0.5,0.4,0.38,0.42,0.52,-0.64,0.0,0.0,0.0
1752854722418,118.0,-69.0,70.0,-9.0,-3.0,2.0,-0.2,-0.0,0.5,0.39,0.42,0.52,-0.64,0.0,0.0,0.0
1752854722460,118.0,-68.0,72.0,-9.0,-4.0,1.0,-0.1,0.1,0.6,0.38,0.41,0.52,-0.64,0.0,0.0,0.0
1752854722505,119.0,-66.0,75.0,-8.0,-4.0,1.0,0.6,0.0,-0.3,0.38,0.4,0.53,-0.64,0.0,0.0,0.0
1752854722540,119.0,-66.0,76.0,-8.0,-4.0,0.0,0.6,0.1,-0.8,0.38,0.4,0.54,-0.64,0.0,0.0,0.0
1752854722592,119.0,-65.0,76.0,-9.0,-4.0,2.0,-0.4,0.1,0.8,0.37,0.39,0.54,-0.64,0.0,0.0,0.0
1752854722623,119.0,-65.0,76.0,-9.0,-4.0,1.0,-0.6,0.1,0.2,0.37,0.39,0.55,-0.64,0.0,0.0,0.0
1752854722665,119.0,-64.0,78.0,-8.0,-4.0,-0.0,1.5,-0.0,-1.1,0.37,0.38,0.56,-0.64,0.0,0.0,0.0
1752854722702,120.0,-64.0,79.0,-10.0,-4.0,2.0,-0.8,0.3,0.8,0.37,0.38,0.56,-0.64,0.0,0.0,0.0
1752854722742,119.0,-64.0,78.0,-9.0,-4.0,1.0,-0.5,0.0,0.5,0.37,0.38,0.56,-0.64,0.0,0.0,0.0
1752854722786,119.0,-64.0,79.0,-9.0,-4.0,1.0,-0.0,0.3,-0.2,0.37,0.38,0.56,-0.64,0.0,0.0,0.0
1752854722826,120.0,-63.0,80.0,-9.0,-4.0,1.0,-0.2,0.1,0.2,0.37,0.38,0.56,-0.64,0.0,0.0,0.0
1752854722970,120.0,-63.0,81.0,-8.0,-4.0,1.0,0.2,0.4,0.4,0.36,0.38,0.57,-0.63,0.0,0.0,0.0
1752854723009,124.0,-62.0,85.0,-9.0,-4.0,1.0,-0.3,0.4,0.5,0.34,0.39,0.57,-0.64,0.0,0.0,0.0
1752854723151,127.0,-61.0,88.0,-9.0,-5.0,0.0,-0.3,0.0,0.2,0.33,0.39,0.58,-0.64,0.0,0.0,0.0
1752854723189,127.0,-61.0,88.0,-8.0,-5.0,0.0,0.2,-0.1,-0.0,0.32,0.4,0.58,-0.64,0.0,0.0,0.0
1752854723230,127.0,-61.0,88.0,-9.0,-5.0,0.0,0.0,0.0,-0.1,0.32,0.4,0.58,-0.64,0.0,0.0,0.0
1752854723271,127.0,-61.0,88.0,-9.0,-5.0,1.0,-0.4,0.2,0.6,0.32,0.39,0.58,-0.64,0.0,0.0,0.0
1752854723309,127.0,-60.0,89.0,-9.0,-5.0,0.0,-0.3,0.1,0.0,0.32,0.39,0.58,-0.64,0.0,0.0,0.0
1752854723349,127.0,-60.0,90.0,-9.0,-5.0,0.0,-0.3,0.4,0.3,0.32,0.39,0.59,-0.63,0.0,0.0,0.0
1752854723389,128.0,-59.0,90.0,-9.0,-5.0,0.0,-0.2,0.1,0.0,0.31,0.39,0.59,-0.63,0.0,0.0,0.0
1752854723430,128.0,-58.0,91.0,-8.0,-5.0,-0.0,0.1,0.0,-0.2,0.31,0.38,0.6,-0.63,0.0,0.0,0.0
1752854723472,129.0,-57.0,92.0,-8.0,-5.0,-0.0,0.4,0.1,-0.0,0.3,0.37,0.61,-0.63,0.0,0.0,0.0
1752854723516,129.0,-56.0,92.0,-8.0,-6.0,0.0,0.1,0.2,-0.3,0.3,0.37,0.61,-0.63,0.0,0.0,0.0
1752854723560,129.0,-56.0,93.0,-8.0,-6.0,-1.0,0.7,-0.1,-0.7,0.3,0.36,0.62,-0.63,0.0,0.0,0.0
1752854723598,129.0,-55.0,93.0,-8.0,-6.0,-0.0,-0.2,0.0,0.2,0.3,0.36,0.62,-0.63,0.0,0.0,0.0
1752854723638,129.0,-55.0,92.0,-8.0,-6.0,0.0,-0.2,0.1,0.5,0.3,0.36,0.62,-0.63,0.0,0.0,0.0
1752854723681,129.0,-55.0,92.0,-8.0,-6.0,-0.0,-0.1,-0.1,0.1,0.3,0.35,0.62,-0.63,0.0,0.0,0.0
1752854723722,130.0,-55.0,92.0,-8.0,-6.0,-0.0,-0.0,-0.0,0.0,0.3,0.35,0.62,-0.63,0.0,0.0,0.0
1752854723762,130.0,-55.0,92.0,-8.0,-6.0,-0.0,-0.0,-0.0,0.2,0.3,0.35,0.62,-0.63,0.0,0.0,0.0
1752854723801,130.0,-55.0,92.0,-8.0,-6.0,-0.0,0.1,-0.0,-0.0,0.3,0.35,0.62,-0.63,0.0,0.0,0.0
1752854724050,130.0,-54.0,92.0,-8.0,-6.0,0.0,-0.2,0.0,0.2,0.3,0.35,0.62,-0.64,0.0,0.0,0.0
1752854724093,130.0,-55.0,90.0,-8.0,-6.0,0.0,0.0,-0.0,-0.2,0.3,0.35,0.61,-0.64,0.0,0.0,0.0
1752854724246,130.0,-55.0,90.0,-8.0,-6.0,0.0,0.0,0.0,0.0,0.3,0.35,0.61,-0.64,0.0,0.0,0.0
1752854724380,131.0,-55.0,90.0,-8.0,-6.0,-0.0,-0.1,-0.0,0.2,0.3,0.35,0.61,-0.64,0.0,0.0,0.0
1752854724434,130.0,-55.0,89.0,-8.0,-6.0,0.0,-0.1,-0.0,0.0,0.3,0.35,0.61,-0.64,0.0,0.0,0.0
1752854724468,130.0,-55.0,89.0,-8.0,-6.0,0.0,-0.2,-0.0,0.2,0.3,0.35,0.61,-0.64,0.0,0.0,0.0
1752854724795,130.0,-55.0,89.0,-8.0,-6.0,-0.0,0.4,-0.2,-0.3,0.3,0.35,0.61,-0.65,0.0,0.0,0.0
1752854724799,131.0,-54.0,90.0,-9.0,-6.0,1.0,-0.8,0.1,0.8,0.29,0.34,0.62,-0.64,0.0,0.0,0.0
1752854724803,131.0,-53.0,90.0,-8.0,-6.0,1.0,-0.6,0.0,0.6,0.29,0.34,0.62,-0.65,0.0,0.0,0.0
1752854724825,132.0,-53.0,90.0,-8.0,-6.0,-0.0,0.1,-0.2,-0.2,0.29,0.34,0.62,-0.64,0.0,0.0,0.0
1752854724866,132.0,-52.0,92.0,-8.0,-6.0,-0.0,-0.1,0.2,-0.1,0.28,0.33,0.63,-0.64,0.0,0.0,0.0
1752854724907,133.0,-51.0,93.0,-8.0,-6.0,-0.0,0.0,0.1,0.0,0.28,0.33,0.64,-0.64,0.0,0.0,0.0
1752854724943,134.0,-49.0,94.0,-8.0,-6.0,-0.0,-0.6,0.2,0.3,0.27,0.32,0.64,-0.64,0.0,0.0,0.0
1752854724985,135.0,-48.0,95.0,-8.0,-6.0,-0.0,-0.8,0.5,0.5,0.27,0.32,0.65,-0.64,0.0,0.0,0.0
1752854725032,136.0,-46.0,96.0,-7.0,-7.0,-0.0,0.4,-0.1,0.4,0.26,0.3,0.67,-0.63,0.0,0.0,0.0
1752854725065,137.0,-44.0,98.0,-7.0,-7.0,-1.0,0.3,0.1,0.2,0.25,0.28,0.68,-0.63,0.0,0.0,0.0
1752854725116,137.0,-42.0,99.0,-7.0,-7.0,0.0,-0.8,-0.2,1.3,0.24,0.27,0.7,-0.62,0.0,0.0,0.0
1752854725149,138.0,-40.0,103.0,-7.0,-7.0,0.0,-1.0,-0.0,2.1,0.23,0.26,0.72,-0.61,0.0,0.0,0.0
1752854725200,140.0,-36.0,108.0,-7.0,-7.0,-1.0,-1.5,0.6,1.6,0.21,0.24,0.75,-0.58,0.0,0.0,0.0
1752854725234,143.0,-31.0,114.0,-5.0,-6.0,-3.0,-0.9,1.2,1.0,0.18,0.21,0.79,-0.54,0.0,0.0,0.0
1752854725268,147.0,-24.0,121.0,-4.0,-6.0,-4.0,0.5,2.1,0.8,0.14,0.17,0.84,-0.49,0.0,0.0,0.0
1752854725303,156.0,-16.0,130.0,-0.0,-7.0,-6.0,1.0,0.4,-1.1,0.09,0.13,0.89,-0.43,0.0,0.0,0.0
1752854725556,10.0,10.0,149.0,9.0,-2.0,-12.0,4.6,0.6,-2.6,-0.11,0.09,0.96,-0.25,0.0,0.0,0.0
1752854725696,6.0,22.0,158.0,4.0,4.0,-1.0,8.5,10.7,4.7,-0.22,0.04,0.96,-0.16,0.0,0.0,0.0
1752854725739,131.0,-39.0,125.0,-6.0,8.0,4.0,1.8,12.9,6.9,0.22,0.3,0.79,-0.48,0.0,0.0,0.0
1752854725773,108.0,-71.0,89.0,-23.0,4.0,8.0,-19.2,6.6,11.6,0.39,0.39,0.62,-0.56,0.0,0.0,0.0
1752854725822,107.0,-72.0,47.0,-9.0,-3.0,15.0,3.4,-0.4,9.9,0.46,0.41,0.48,-0.62,0.0,0.0,0.0
1752854725860,112.0,-69.0,60.0,-9.0,-3.0,1.0,0.4,0.8,-0.6,0.43,0.39,0.51,-0.64,0.0,0.0,0.0
1752854725911,116.0,-66.0,83.0,-6.0,-4.0,-4.0,2.9,0.2,-4.9,0.39,0.38,0.56,-0.62,0.0,0.0,0.0
1752854725946,117.0,-65.0,83.0,-7.0,-4.0,1.0,1.6,0.1,0.1,0.38,0.38,0.58,-0.62,0.0,0.0,0.0
1752854726081,117.0,-66.0,78.0,-8.0,-4.0,-1.0,1.4,-0.4,-1.5,0.38,0.39,0.56,-0.63,0.0,0.0,0.0
1752854726118,117.0,-66.0,80.0,-9.0,-4.0,1.0,-0.7,0.2,0.7,0.38,0.39,0.56,-0.62,0.0,0.0,0.0
1752854726158,116.0,-67.0,78.0,-10.0,-4.0,1.0,-0.4,-0.2,-0.0,0.39,0.39,0.55,-0.62,0.0,0.0,0.0
1752854726400,126.0,-47.0,108.0,-6.0,0.0,1.0,0.9,6.6,3.6,0.31,0.3,0.7,-0.57,0.0,0.0,0.0
1752854726450,138.0,-30.0,123.0,0.0,-3.0,-7.0,3.5,3.9,-1.5,0.21,0.22,0.81,-0.5,0.0,0.0,0.0
1752854726500,159.0,-14.0,133.0,2.0,-3.0,-8.0,3.9,3.1,-0.6,0.1,0.15,0.89,-0.42,0.0,0.0,0.0
1752854726532,10.0,-0.0,140.0,6.0,-5.0,-11.0,4.9,1.2,-3.2,-0.03,0.08,0.94,-0.34,0.0,0.0,0.0
1752854726580,6.0,9.0,145.0,7.0,-5.0,-14.0,4.9,-0.8,-4.3,-0.09,0.05,0.95,-0.29,0.0,0.0,0.0
1752854726614,6.0,11.0,146.0,6.0,-6.0,-10.0,2.8,0.1,-1.4,-0.12,0.05,0.95,-0.28,0.0,0.0,0.0
1752854726650,9.0,8.0,143.0,1.0,-6.0,-8.0,0.2,0.4,-0.6,-0.1,0.07,0.95,-0.3,0.0,0.0,0.0
1752854726708,12.0,3.0,141.0,-2.0,-6.0,-7.0,-2.0,0.4,0.1,-0.07,0.1,0.94,-0.33,0.0,0.0,0.0
1752854726740,14.0,1.0,139.0,2.0,-6.0,-10.0,1.9,0.0,-2.3,-0.05,0.11,0.93,-0.34,0.0,0.0,0.0
1752854726772,15.0,-1.0,137.0,6.0,-7.0,-13.0,8.0,0.3,-5.9,-0.04,0.12,0.92,-0.36,0.0,0.0,0.0
1752854726808,178.0,-8.0,132.0,7.0,-3.0,-10.0,9.2,5.0,-2.4,0.01,0.15,0.9,-0.41,0.0,0.0,0.0
1752854726848,155.0,-24.0,122.0,3.0,3.0,-1.0,5.2,11.2,4.8,0.11,0.23,0.83,-0.5,0.0,0.0,0.0
1752854726993,117.0,-70.0,47.0,-8.0,-3.0,1.0,2.6,-2.3,-0.5,0.25,0.33,0.7,-0.58,0.0,0.0,0.0
1752854727134,122.0,-69.0,65.0,-10.0,-4.0,2.0,-0.9,-0.6,0.7,0.37,0.44,0.48,-0.66,0.0,0.0,0.0
1752854727172,122.0,-69.0,63.0,-10.0,-4.0,2.0,-1.0,-0.3,0.9,0.37,0.43,0.48,-0.67,0.0,0.0,0.0
1752854727219,122.0,-68.0,65.0,-10.0,-4.0,2.0,-0.9,-0.3,0.8,0.37,0.42,0.49,-0.66,0.0,0.0,0.0
1752854727255,122.0,-66.0,69.0,-8.0,-4.0,0.0,0.9,-0.2,-1.1,0.37,0.41,0.51,-0.66,0.0,0.0,0.0
1752854727303,122.0,-65.0,72.0,-10.0,-4.0,1.0,-0.6,-0.0,0.1,0.36,0.4,0.52,-0.66,0.0,0.0,0.0
1752854727337,123.0,-64.0,74.0,-9.0,-4.0,2.0,-0.3,0.2,0.6,0.36,0.39,0.54,-0.66,0.0,0.0,0.0
1752854727372,123.0,-62.0,78.0,-8.0,-5.0,-0.0,1.0,-0.1,-1.7,0.35,0.38,0.56,-0.65,0.0,0.0,0.0
1752854727419,124.0,-61.0,81.0,-8.0,-5.0,-0.0,0.0,0.1,-0.4,0.35,0.37,0.57,-0.65,0.0,0.0,0.0
1752854727453,124.0,-60.0,82.0,-9.0,-5.0,2.0,-1.8,0.6,1.7,0.34,0.36,0.58,-0.65,0.0,0.0,0.0
1752854727497,125.0,-57.0,85.0,-11.0,-4.0,3.0,-2.6,1.4,3.0,0.34,0.35,0.59,-0.65,0.0,0.0,0.0
1752854727642,127.0,-53.0,89.0,-13.0,-3.0,5.0,3.8,6.2,-1.6,0.32,0.32,0.63,-0.63,0.0,0.0,0.0
1752854727785,356.0,18.0,143.0,5.0,-6.0,-8.0,0.2,0.3,0.5,-0.16,-0.04,0.94,-0.3,0.0,0.0,0.0
1752854727828,359.0,16.0,141.0,1.0,-6.0,-7.0,-2.0,0.4,-0.4,-0.14,-0.01,0.93,-0.32,0.0,0.0,0.0
1752854727862,1.0,15.0,141.0,3.0,-6.0,-9.0,1.1,0.1,-1.8,-0.14,0.01,0.94,-0.33,0.0,0.0,0.0
1752854727912,1.0,15.0,141.0,6.0,-6.0,-10.0,5.2,-0.1,-3.9,-0.14,0.01,0.94,-0.32,0.0,0.0,0.0
1752854727953,4.0,10.0,139.0,8.0,-5.0,-12.0,6.8,1.9,-4.9,-0.12,0.02,0.93,-0.34,0.0,0.0,0.0
1752854728096,118.0,-62.0,88.0,-20.0,6.0,6.0,-11.1,9.9,5.5,0.33,0.34,0.64,-0.6,0.0,0.0,0.0
1752854728148,111.0,-72.0,54.0,-17.0,-2.0,15.0,-7.6,-0.2,12.5,0.44,0.41,0.49,-0.64,0.0,0.0,0.0
1752854728181,109.0,-72.0,32.0,-13.0,0.0,4.0,0.3,-2.6,2.7,0.46,0.43,0.43,-0.65,0.0,0.0,0.0
1752854728215,112.0,-73.0,49.0,-6.0,-2.0,-1.0,0.6,1.2,-1.4,0.43,0.44,0.46,-0.64,0.0,0.0,0.0
1752854728265,116.0,-72.0,66.0,-5.0,-3.0,-2.0,4.5,-0.5,-3.0,0.4,0.44,0.5,-0.64,0.0,0.0,0.0
1752854728298,117.0,-72.0,63.0,-10.0,-3.0,3.0,-1.0,0.1,1.3,0.4,0.44,0.49,-0.64,0.0,0.0,0.0
1752854728345,117.0,-72.0,59.0,-10.0,-3.0,2.0,-0.9,-0.2,0.7,0.4,0.44,0.48,-0.65,0.0,0.0,0.0
1752854728381,117.0,-72.0,61.0,-9.0,-3.0,1.0,1.2,-0.8,-0.5,0.4,0.44,0.48,-0.65,0.0,0.0,0.0
1752854728415,118.0,-71.0,64.0,-9.0,-3.0,0.0,1.4,-0.3,-1.3,0.39,0.44,0.49,-0.65,0.0,0.0,0.0
1752854728565,118.0,-71.0,64.0,-9.0,-3.0,2.0,-0.3,-0.1,0.1,0.39,0.43,0.49,-0.65,0.0,0.0,0.0
1752854728599,117.0,-72.0,60.0,-10.0,-3.0,1.0,-0.2,-0.1,-0.1,0.4,0.44,0.48,-0.65,0.0,0.0,0.0
1752854728741,117.0,-72.0,60.0,-9.0,-4.0,0.0,0.2,-0.1,-0.7,0.4,0.44,0.48,-0.65,0.0,0.0,0.0
1752854728779,120.0,-67.0,76.0,-11.0,-3.0,2.0,0.4,0.3,0.5,0.37,0.41,0.53,-0.64,0.0,0.0,0.0
1752854728815,121.0,-65.0,81.0,-11.0,-4.0,2.0,-4.4,1.2,3.5,0.36,0.4,0.56,-0.64,0.0,0.0,0.0
1752854728855,123.0,-60.0,88.0,-14.0,-2.0,7.0,-4.9,4.2,7.3,0.34,0.37,0.59,-0.63,0.0,0.0,0.0
1752854728906,131.0,-45.0,105.0,-8.0,1.0,4.0,-0.5,9.0,6.4,0.29,0.3,0.69,-0.6,0.0,0.0,0.0
1752854729056,357.0,16.0,150.0,10.0,-4.0,-13.0,7.4,0.7,-5.1,-0.12,-0.01,0.96,-0.26,0.0,0.0,0.0
1752854729090,356.0,18.0,153.0,7.0,-5.0,-13.0,4.0,-0.9,-4.2,-0.16,-0.03,0.96,-0.23,0.0,0.0,0.0
1752854729131,358.0,18.0,154.0,6.0,-3.0,-12.0,1.3,0.5,-2.1,-0.15,-0.02,0.96,-0.22,0.0,0.0,0.0
1752854729170,0.0,15.0,152.0,4.0,-4.0,-10.0,2.3,1.1,-2.5,-0.13,0.0,0.96,-0.23,0.0,0.0,0.0
1752854729214,3.0,10.0,149.0,6.0,-3.0,-13.0,5.7,1.7,-6.0,-0.1,0.03,0.96,-0.26,0.0,0.0,0.0
1752854729353,10.0,-2.0,140.0,-23.0,1.0,14.0,-14.5,4.9,14.2,-0.04,0.07,0.95,-0.32,0.0,0.0,0.0
1752854729400,111.0,-67.0,73.0,-16.0,2.0,7.0,-7.0,5.3,5.2,0.42,0.37,0.55,-0.61,0.0,0.0,0.0
1752854729437,113.0,-66.0,72.0,-7.0,-7.0,6.0,2.4,0.2,-0.4,0.42,0.36,0.55,-0.63,0.0,0.0,0.0
1752854729470,117.0,-63.0,83.0,-8.0,-4.0,-3.0,1.7,-1.4,-1.8,0.38,0.36,0.59,-0.62,0.0,0.0,0.0
1752854729520,118.0,-61.0,88.0,-5.0,-5.0,-3.0,1.9,-0.5,-2.5,0.37,0.35,0.6,-0.61,0.0,0.0,0.0
1752854729561,118.0,-62.0,83.0,-10.0,-4.0,1.0,-2.8,0.5,1.9,0.37,0.36,0.59,-0.62,0.0,0.0,0.0
1752854729603,117.0,-63.0,80.0,-9.0,-4.0,1.0,-0.2,-0.0,0.7,0.38,0.36,0.57,-0.63,0.0,0.0,0.0
1752854729651,118.0,-62.0,82.0,-8.0,-5.0,-0.0,0.6,-0.2,-1.0,0.38,0.35,0.58,-0.63,0.0,0.0,0.0
1752854729687,119.0,-61.0,84.0,-8.0,-5.0,-0.0,0.0,0.1,-0.6,0.37,0.35,0.6,-0.62,0.0,0.0,0.0
1752854729718,119.0,-60.0,85.0,-9.0,-5.0,0.0,-0.3,-0.2,0.3,0.37,0.34,0.6,-0.62,0.0,0.0,0.0
1752854729871,120.0,-59.0,86.0,-7.0,-6.0,0.0,-0.7,0.3,0.3,0.36,0.34,0.61,-0.62,0.0,0.0,0.0
1752854729904,126.0,-51.0,95.0,-6.0,-7.0,-0.0,1.6,-0.5,0.2,0.31,0.3,0.66,-0.62,0.0,0.0,0.0
1752854729954,128.0,-48.0,98.0,-7.0,-6.0,-1.0,-0.1,0.3,-0.1,0.3,0.28,0.68,-0.6,0.0,0.0,0.0
1752854729988,130.0,-45.0,102.0,-6.0,-6.0,-2.0,0.8,-0.1,-0.9,0.28,0.26,0.71,-0.59,0.0,0.0,0.0
1752854730021,132.0,-41.0,106.0,-3.0,-7.0,-4.0,0.2,-0.7,-0.3,0.26,0.24,0.74,-0.57,0.0,0.0,0.0
1752854730071,133.0,-39.0,109.0,-5.0,-8.0,-3.0,1.2,-0.3,-0.5,0.24,0.23,0.76,-0.56,0.0,0.0,0.0
1752854730105,133.0,-38.0,112.0,-8.0,-7.0,-2.0,-1.9,0.1,0.4,0.24,0.23,0.77,-0.55,0.0,0.0,0.0
1752854730356,132.0,-36.0,117.0,-6.0,-8.0,-4.0,0.5,0.3,0.1,0.23,0.22,0.78,-0.54,0.0,0.0,0.0
1752854730506,134.0,-33.0,125.0,-5.0,-7.0,-5.0,0.5,0.1,-0.8,0.2,0.22,0.83,-0.47,0.0,0.0,0.0
1752854730785,138.0,-30.0,127.0,-5.0,-7.0,-6.0,0.4,-0.2,-0.2,0.18,0.22,0.84,-0.46,0.0,0.0,0.0
1752854730785,137.0,-30.0,127.0,-5.0,-7.0,-5.0,-0.3,0.1,-0.1,0.18,0.22,0.85,-0.45,0.0,0.0,0.0
1752854730822,137.0,-30.0,127.0,-6.0,-7.0,-5.0,-0.4,-0.6,-0.4,0.18,0.22,0.85,-0.45,0.0,0.0,0.0
1752854730866,139.0,-29.0,127.0,-5.0,-7.0,-5.0,-0.4,0.1,0.2,0.17,0.22,0.85,-0.45,0.0,0.0,0.0
1752854730906,140.0,-29.0,127.0,-5.0,-7.0,-5.0,-0.2,0.2,-0.2,0.17,0.22,0.85,-0.45,0.0,0.0,0.0
1752854730947,141.0,-28.0,127.0,-5.0,-7.0,-6.0,0.0,0.3,-0.4,0.16,0.22,0.85,-0.45,0.0,0.0,0.0
1752854730985,142.0,-28.0,127.0,-4.0,-7.0,-6.0,-0.1,-0.1,-0.6,0.16,0.22,0.85,-0.46,0.0,0.0,0.0
1752854731022,144.0,-27.0,126.0,-5.0,-7.0,-5.0,0.2,0.2,-0.0,0.15,0.21,0.85,-0.46,0.0,0.0,0.0
1752854731063,145.0,-26.0,126.0,-4.0,-7.0,-5.0,0.1,-0.1,0.2,0.15,0.21,0.85,-0.46,0.0,0.0,0.0
1752854731214,151.0,-24.0,124.0,-2.0,-7.0,-6.0,-5.0,0.2,1.5,0.12,0.2,0.85,-0.48,0.0,0.0,0.0
1752854731263,152.0,-24.0,123.0,-1.0,-10.0,0.0,2.5,-2.5,5.2,0.12,0.2,0.84,-0.49,0.0,0.0,0.0
1752854731301,153.0,-23.0,123.0,-3.0,-5.0,-8.0,0.9,2.8,-3.0,0.12,0.2,0.84,-0.49,0.0,0.0,0.0
1752854731345,152.0,-24.0,122.0,-0.0,-11.0,-5.0,-1.0,0.3,1.0,0.12,0.2,0.84,-0.49,0.0,0.0,0.0
1752854731376,152.0,-23.0,122.0,-6.0,-6.0,-5.0,1.1,-0.9,0.0,0.12,0.2,0.84,-0.49,0.0,0.0,0.0
1752854731421,152.0,-23.0,123.0,-6.0,-6.0,-6.0,-1.9,1.4,-1.0,0.12,0.2,0.84,-0.49,0.0,0.0,0.0
1752854731463,152.0,-24.0,123.0,-4.0,-7.0,-5.0,0.2,0.7,0.0,0.12,0.2,0.84,-0.49,0.0,0.0,0.0
1752854731497,152.0,-24.0,123.0,-3.0,-7.0,-5.0,0.5,0.2,-0.3,0.12,0.2,0.84,-0.49,0.0,0.0,0.0
1752854731547,152.0,-24.0,123.0,-4.0,-8.0,-6.0,-1.6,1.4,-0.9,0.12,0.2,0.84,-0.49,0.0,0.0,0.0
1752854731580,152.0,-23.0,123.0,-5.0,-6.0,-5.0,0.8,-1.0,-0.4,0.12,0.2,0.84,-0.49,0.0,0.0,0.0
1752854731614,152.0,-24.0,123.0,-3.0,-9.0,-6.0,-0.3,0.2,0.4,0.12,0.2,0.84,-0.49,0.0,0.0,0.0
1752854731663,152.0,-24.0,123.0,-3.0,-8.0,-5.0,-0.5,0.4,-0.3,0.12,0.2,0.84,-0.49,0.0,0.0,0.0
1752854731711,152.0,-23.0,123.0,-4.0,-7.0,-5.0,0.3,-0.4,-0.2,0.12,0.2,0.84,-0.49,0.0,0.0,0.0
1752854731747,152.0,-23.0,123.0,-4.0,-8.0,-5.0,-0.2,-0.2,-0.2,0.12,0.2,0.84,-0.49,0.0,0.0,0.0
1752854731897,152.0,-23.0,123.0,-4.0,-7.0,-5.0,0.2,0.0,-0.5,0.12,0.2,0.84,-0.49,0.0,0.0,0.0
1752854731931,152.0,-23.0,123.0,-4.0,-7.0,-5.0,-0.4,0.4,-0.3,0.12,0.2,0.84,-0.49,0.0,0.0,0.0
1752854731978,152.0,-23.0,123.0,-4.0,-8.0,-5.0,0.3,-0.0,-0.2,0.12,0.2,0.84,-0.49,0.0,0.0,0.0
1752854732115,152.0,-23.0,123.0,-4.0,-7.0,-5.0,-0.6,0.2,-0.4,0.12,0.2,0.84,-0.49,0.0,0.0,0.0
1752854732165,152.0,-24.0,123.0,-3.0,-8.0,-5.0,-0.4,0.2,0.0,0.12,0.2,0.84,-0.49,0.0,0.0,0.0
1752854732215,152.0,-23.0,123.0,-4.0,-8.0,-5.0,0.3,0.1,-0.2,0.12,0.2,0.84,-0.49,0.0,0.0,0.0
1752854732249,152.0,-23.0,123.0,-4.0,-7.0,-5.0,-0.2,0.1,-0.1,0.12,0.2,0.84,-0.49,0.0,0.0,0.0
1752854732598,152.0,-23.0,123.0,-4.0,-7.0,-5.0,0.0,0.0,-0.1,0.12,0.2,0.84,-0.49,0.0,0.0,0.0
1752854732951,153.0,-23.0,123.0,3.0,-7.0,-8.0,4.5,0.5,-2.6,0.12,0.2,0.84,-0.49,0.0,0.0,0.0
1752854732981,147.0,-24.0,121.0,-11.0,-9.0,-2.0,-1.5,2.6,-0.4,0.14,0.16,0.84,-0.49,0.0,0.0,0.0
1752854733020,147.0,-24.0,121.0,-4.0,-9.0,-3.0,0.1,-1.1,1.4,0.15,0.16,0.84,-0.49,0.0,0.0,0.0
1752854733062,146.0,-24.0,121.0,-4.0,-8.0,-6.0,0.3,-0.7,-1.5,0.15,0.16,0.84,-0.49,0.0,0.0,0.0
1752854733103,146.0,-24.0,121.0,-7.0,-7.0,-5.0,-2.7,0.7,-0.3,0.15,0.16,0.84,-0.49,0.0,0.0,0.0
1752854733243,146.0,-24.0,121.0,-8.0,-7.0,-4.0,-0.4,1.2,-0.2,0.15,0.16,0.84,-0.49,0.0,0.0,0.0
1752854733279,145.0,-25.0,122.0,-6.0,-6.0,-4.0,-1.1,1.1,-0.3,0.15,0.16,0.84,-0.49,0.0,0.0,0.0
1752854733319,141.0,-27.0,124.0,-4.0,-9.0,-4.0,-2.5,2.9,-1.3,0.17,0.19,0.85,-0.47,0.0,0.0,0.0
1752854733462,139.0,-28.0,125.0,-4.0,-7.0,-5.0,0.8,0.1,0.3,0.17,0.2,0.85,-0.47,0.0,0.0,0.0
1752854733516,137.0,-29.0,126.0,-3.0,-7.0,-7.0,1.7,0.0,-1.6,0.18,0.19,0.85,-0.46,0.0,0.0,0.0
1752854733655,136.0,-29.0,127.0,-4.0,-11.0,-2.0,-3.5,3.7,-2.1,0.18,0.19,0.85,-0.46,0.0,0.0,0.0
1752854733689,132.0,-32.0,130.0,-5.0,-7.0,-6.0,0.2,-0.0,-0.7,0.19,0.23,0.85,-0.44,0.0,0.0,0.0
1752854733723,132.0,-32.0,129.0,-5.0,-6.0,-5.0,0.6,-0.8,0.3,0.19,0.23,0.85,-0.44,0.0,0.0,0.0
1752854733769,129.0,-34.0,129.0,-6.0,-12.0,-3.0,-0.8,-5.3,2.1,0.2,0.22,0.85,-0.44,0.0,0.0,0.0
1752854733808,128.0,-35.0,127.0,-6.0,-9.0,-2.0,-0.2,-2.9,3.3,0.22,0.23,0.83,-0.45,0.0,0.0,0.0
1752854733859,128.0,-35.0,127.0,-6.0,-9.0,-2.0,-1.2,-0.3,0.2,0.22,0.23,0.83,-0.45,0.0,0.0,0.0
1752854733893,131.0,-33.0,127.0,-4.0,-8.0,-6.0,1.7,0.3,-1.9,0.21,0.23,0.84,-0.45,0.0,0.0,0.0
1752854733928,128.0,-34.0,127.0,-6.0,-5.0,-6.0,-0.5,1.2,-1.2,0.21,0.22,0.84,-0.45,0.0,0.0,0.0
1752854733979,125.0,-34.0,126.0,-6.0,-6.0,-3.0,-0.9,0.7,2.1,0.24,0.19,0.84,-0.45,0.0,0.0,0.0
1752854734013,126.0,-33.0,125.0,-2.0,-5.0,-5.0,3.1,1.5,0.1,0.23,0.17,0.85,-0.45,0.0,0.0,0.0
1752854734044,129.0,-30.0,125.0,-10.0,-9.0,-5.0,3.2,1.3,-4.6,0.22,0.15,0.85,-0.45,0.0,0.0,0.0
1752854734082,133.0,-28.0,124.0,-8.0,-6.0,-6.0,-1.7,-2.3,1.0,0.2,0.13,0.86,-0.46,0.0,0.0,0.0
1752854734133,131.0,-29.0,123.0,-10.0,-0.0,-4.0,-4.8,6.9,0.2,0.21,0.13,0.85,-0.46,0.0,0.0,0.0
1752854734181,128.0,-32.0,125.0,1.0,-12.0,-4.0,-2.9,5.3,-0.3,0.22,0.16,0.85,-0.46,0.0,0.0,0.0
1752854734219,127.0,-34.0,127.0,-5.0,-6.0,-6.0,2.9,-1.6,-0.5,0.23,0.19,0.84,-0.45,0.0,0.0,0.0
1752854734457,132.0,-32.0,128.0,-6.0,-6.0,-5.0,-0.4,-0.0,0.1,0.2,0.22,0.84,-0.45,0.0,0.0,0.0
1752854734495,134.0,-33.0,129.0,-5.0,-6.0,-5.0,-0.1,-0.0,-0.1,0.19,0.25,0.84,-0.45,0.0,0.0,0.0
1752854734547,135.0,-33.0,130.0,-5.0,-6.0,-5.0,-0.2,0.0,0.0,0.18,0.26,0.84,-0.44,0.0,0.0,0.0
1752854734577,135.0,-33.0,131.0,-6.0,-6.0,-5.0,-0.9,-0.7,1.8,0.18,0.27,0.84,-0.44,0.0,0.0,0.0
1752854734621,136.0,-33.0,131.0,-6.0,-8.0,-4.0,-0.3,-1.9,1.1,0.18,0.27,0.84,-0.44,0.0,0.0,0.0
1752854734686,137.0,-32.0,132.0,-5.0,-8.0,-6.0,0.6,-1.6,-0.8,0.17,0.29,0.84,-0.43,0.0,0.0,0.0
1752854734701,136.0,-33.0,134.0,-6.0,-6.0,-6.0,0.5,2.3,-2.0,0.17,0.3,0.84,-0.42,0.0,0.0,0.0
1752854734733,136.0,-33.0,135.0,-7.0,-6.0,-5.0,0.0,0.0,-0.0,0.17,0.31,0.84,-0.42,0.0,0.0,0.0
1752854734780,136.0,-33.0,134.0,-4.0,-5.0,-7.0,-0.9,-1.3,1.4,0.17,0.31,0.84,-0.42,0.0,0.0,0.0
1752854734918,133.0,-33.0,132.0,-5.0,-7.0,-5.0,0.8,-0.9,0.9,0.19,0.27,0.84,-0.43,0.0,0.0,0.0
1752854734958,132.0,-33.0,132.0,-5.0,-6.0,-5.0,0.6,-0.1,0.1,0.19,0.26,0.84,-0.43,0.0,0.0,0.0
1752854734997,131.0,-34.0,132.0,-5.0,-6.0,-6.0,-0.3,-0.0,0.0,0.2,0.26,0.84,-0.43,0.0,0.0,0.0
1752854735048,130.0,-34.0,132.0,-6.0,-6.0,-5.0,-0.2,0.0,0.4,0.2,0.26,0.84,-0.42,0.0,0.0,0.0
1752854735083,129.0,-34.0,133.0,-5.0,-6.0,-5.0,0.3,-0.2,0.0,0.2,0.26,0.85,-0.42,0.0,0.0,0.0
1752854735125,128.0,-34.0,133.0,-6.0,-6.0,-5.0,-0.1,0.1,-0.2,0.21,0.25,0.85,-0.42,0.0,0.0,0.0
1752854735174,127.0,-34.0,133.0,-6.0,-6.0,-6.0,-0.1,-0.1,-0.0,0.21,0.25,0.85,-0.42,0.0,0.0,0.0
1752854735315,128.0,-34.0,132.0,-6.0,-6.0,-7.0,-0.7,-0.3,-1.2,0.21,0.25,0.85,-0.42,0.0,0.0,0.0
1752854735358,129.0,-34.0,132.0,-6.0,-7.0,-6.0,-1.1,-1.0,1.7,0.2,0.25,0.84,-0.43,0.0,0.0,0.0
1752854735410,129.0,-34.0,132.0,-5.0,-6.0,-7.0,0.3,0.5,-0.1,0.21,0.25,0.84,-0.43,0.0,0.0,0.0
1752854735445,130.0,-34.0,129.0,-7.0,-7.0,-4.0,-0.4,0.3,0.2,0.21,0.24,0.84,-0.45,0.0,0.0,0.0
1752854735479,131.0,-35.0,124.0,-5.0,-7.0,-6.0,0.8,-0.5,-1.2,0.21,0.23,0.83,-0.47,0.0,0.0,0.0
1752854735521,130.0,-36.0,122.0,-5.0,-6.0,-5.0,1.0,0.9,-0.4,0.23,0.22,0.82,-0.48,0.0,0.0,0.0
1752854735570,130.0,-36.0,122.0,-4.0,-6.0,-5.0,1.7,0.5,-0.9,0.23,0.22,0.82,-0.49,0.0,0.0,0.0
1752854735605,129.0,-36.0,119.0,-12.0,-13.0,-3.0,6.4,4.5,-6.2,0.23,0.2,0.81,-0.49,0.0,0.0,0.0
1752854735656,129.0,-36.0,122.0,-5.0,3.0,-17.0,2.7,-2.5,2.3,0.23,0.23,0.81,-0.48,0.0,0.0,0.0
1752854735697,129.0,-37.0,125.0,-6.0,-7.0,-4.0,-0.6,-0.1,0.4,0.22,0.24,0.82,-0.47,0.0,0.0,0.0
1752854735729,130.0,-35.0,127.0,-5.0,-7.0,-5.0,0.4,-0.9,0.3,0.21,0.24,0.83,-0.46,0.0,0.0,0.0
1752854735775,132.0,-34.0,128.0,-5.0,-6.0,-4.0,0.0,0.3,0.9,0.2,0.24,0.83,-0.45,0.0,0.0,0.0
1752854735816,133.0,-33.0,129.0,-4.0,-7.0,-6.0,1.2,-0.7,-0.3,0.19,0.25,0.84,-0.45,0.0,0.0,0.0
1752854735860,135.0,-32.0,130.0,-6.0,-7.0,-4.0,-0.8,-0.7,0.9,0.18,0.26,0.84,-0.44,0.0,0.0,0.0
1752854736002,131.0,-34.0,139.0,-9.0,-4.0,-8.0,-3.3,0.8,-1.7,0.18,0.32,0.84,-0.41,0.0,0.0,0.0
1752854736038,122.0,-36.0,145.0,-8.0,-8.0,-6.0,-1.8,-3.5,0.4,0.19,0.34,0.84,-0.37,0.0,0.0,0.0
1752854736074,108.0,-39.0,152.0,-7.0,-3.0,-6.0,-0.7,-0.2,1.1,0.22,0.37,0.84,-0.34,0.0,0.0,0.0
1752854736121,51.0,-41.0,164.0,-6.0,2.0,-4.0,0.0,2.5,2.8,0.27,0.4,0.84,-0.25,0.0,0.0,0.0
1752854736157,53.0,-39.0,-176.0,-5.0,4.0,-7.0,0.9,2.0,1.1,0.3,0.42,0.84,-0.15,0.0,0.0,0.0
1752854736203,53.0,-35.0,-164.0,-3.0,4.0,-8.0,1.6,2.6,-0.4,0.32,0.42,0.85,-0.03,0.0,0.0,0.0
1752854736239,53.0,-33.0,-156.0,-5.0,4.0,-5.0,-0.6,-0.1,3.0,0.34,0.42,0.84,0.04,0.0,0.0,0.0
1752854736284,53.0,-33.0,-154.0,-5.0,5.0,-6.0,0.0,1.5,0.8,0.35,0.42,0.84,0.05,0.0,0.0,0.0
1752854736437,54.0,-32.0,-150.0,-4.0,6.0,-8.0,-0.2,1.5,-0.5,0.35,0.42,0.83,0.07,0.0,0.0,0.0
1752854736469,53.0,-27.0,-150.0,-3.0,3.0,-6.0,1.4,-1.8,1.6,0.32,0.42,0.84,0.11,0.0,0.0,0.0
1752854736503,54.0,-25.0,-149.0,-3.0,4.0,-8.0,1.8,-1.0,-0.3,0.31,0.43,0.84,0.12,0.0,0.0,0.0
1752854736551,51.0,-20.0,-144.0,-1.0,7.0,-11.0,1.4,2.3,-3.3,0.29,0.41,0.85,0.18,0.0,0.0,0.0
1752854736584,51.0,-19.0,-142.0,-4.0,4.0,-2.0,12.1,7.5,-7.0,0.29,0.4,0.84,0.21,0.0,0.0,0.0
1752854736628,299.0,-25.0,-139.0,-3.0,1.0,-6.0,1.5,-4.3,1.1,0.33,0.39,0.83,0.22,0.0,0.0,0.0
1752854736785,316.0,-32.0,-141.0,-5.0,3.0,-5.0,-1.5,-1.8,3.9,0.38,0.35,0.84,0.16,0.0,0.0,0.0
1752854736912,321.0,-32.0,-143.0,-10.0,2.0,1.0,0.3,-4.1,4.2,0.37,0.38,0.83,0.15,0.0,0.0,0.0
1752854737065,45.0,-25.0,-149.0,-4.0,4.0,-7.0,0.6,-0.1,1.1,0.3,0.36,0.87,0.14,0.0,0.0,0.0
1752854737091,49.0,-21.0,-148.0,-3.0,6.0,-9.0,0.8,0.3,2.0,0.28,0.39,0.86,0.16,0.0,0.0,0.0
1752854737140,47.0,-11.0,-148.0,-3.0,4.0,-8.0,2.2,-0.7,-4.7,0.2,0.38,0.88,0.21,0.0,0.0,0.0
1752854737181,41.0,-6.0,-142.0,-0.0,5.0,-8.0,0.9,-0.7,-0.5,0.18,0.34,0.88,0.27,0.0,0.0,0.0
1752854737219,38.0,-5.0,-139.0,0.0,6.0,-7.0,1.2,-0.8,-0.3,0.16,0.3,0.89,0.32,0.0,0.0,0.0
1752854737254,224.0,-3.0,-133.0,-0.0,7.0,-5.0,1.1,-0.7,1.5,0.15,0.27,0.88,0.37,0.0,0.0,0.0
1752854737302,230.0,-6.0,-133.0,-3.0,8.0,-3.0,-0.9,-2.0,1.8,0.17,0.27,0.87,0.37,0.0,0.0,0.0
1752854737340,32.0,-10.0,-145.0,-2.0,7.0,-11.0,-0.6,0.8,-2.8,0.17,0.27,0.91,0.28,0.0,0.0,0.0
1752854737391,229.0,-8.0,-133.0,1.0,6.0,-4.0,2.0,-0.9,2.3,0.16,0.23,0.9,0.34,0.0,0.0,0.0
1752854737425,228.0,-8.0,-131.0,-3.0,9.0,-9.0,-1.8,1.4,-2.3,0.17,0.22,0.88,0.38,0.0,0.0,0.0
1752854737455,235.0,-12.0,-132.0,-1.0,7.0,-7.0,-0.0,0.1,-0.4,0.19,0.18,0.89,0.37,0.0,0.0,0.0
1752854737492,239.0,-18.0,-128.0,-3.0,8.0,-6.0,1.8,1.4,0.5,0.22,0.11,0.88,0.4,0.0,0.0,0.0
1752854737543,236.0,-20.0,-126.0,-2.0,8.0,-4.0,1.1,0.1,0.8,0.22,0.05,0.88,0.42,0.0,0.0,0.0
1752854737577,235.0,-20.0,-127.0,-3.0,8.0,-6.0,0.7,0.7,-0.7,0.22,0.05,0.88,0.42,0.0,0.0,0.0
1752854737628,235.0,-22.0,-126.0,-2.0,7.0,-4.0,1.5,-0.3,1.0,0.22,0.03,0.88,0.42,0.0,0.0,0.0
1752854737663,235.0,-23.0,-126.0,-3.0,8.0,-5.0,0.5,0.3,-0.2,0.22,-0.0,0.88,0.42,0.0,0.0,0.0
1752854737694,237.0,-26.0,-125.0,-5.0,7.0,-4.0,-1.0,-0.8,1.7,0.23,-0.03,0.87,0.43,0.0,0.0,0.0
1752854737733,236.0,-28.0,-124.0,-6.0,7.0,-3.0,-1.2,-0.8,1.4,0.24,-0.07,0.86,0.45,0.0,0.0,0.0
1752854737779,239.0,-31.0,-124.0,-5.0,6.0,-3.0,0.2,-1.1,1.2,0.25,-0.09,0.85,0.45,0.0,0.0,0.0
1752854737823,241.0,-33.0,-124.0,-7.0,6.0,-5.0,-1.2,-0.8,-0.1,0.26,-0.11,0.85,0.44,0.0,0.0,0.0
1752854737861,239.0,-34.0,-123.0,-6.0,7.0,-5.0,-0.5,-0.1,-0.9,0.26,-0.14,0.84,0.45,0.0,0.0,0.0
1752854737897,235.0,-35.0,-123.0,-7.0,6.0,-3.0,-1.3,-0.9,-0.4,0.24,-0.18,0.83,0.47,0.0,0.0,0.0
1752854738040,227.0,-36.0,-115.0,-8.0,11.0,-3.0,-2.1,2.8,-0.1,0.23,-0.21,0.79,0.53,0.0,0.0,0.0
1752854738093,219.0,-39.0,-103.0,-7.0,6.0,0.0,-0.5,-1.0,1.8,0.22,-0.25,0.73,0.59,0.0,0.0,0.0
1752854738228,218.0,-47.0,-82.0,-7.0,6.0,3.0,1.1,-1.2,-0.5,0.19,-0.3,0.66,0.66,0.0,0.0,0.0
1752854738375,221.0,-53.0,-82.0,-11.0,16.0,-4.0,-3.2,10.2,-5.0,0.26,-0.37,0.57,0.69,0.0,0.0,0.0
1752854738410,210.0,-50.0,-80.0,-6.0,4.0,2.0,0.1,-0.4,0.7,0.19,-0.38,0.55,0.72,0.0,0.0,0.0
1752854738449,208.0,-50.0,-79.0,-7.0,9.0,-1.0,-0.6,-0.2,0.1,0.18,-0.39,0.54,0.73,0.0,0.0,0.0
1752854738501,212.0,-51.0,-80.0,-7.0,5.0,1.0,-0.2,-1.3,0.7,0.21,-0.38,0.54,0.72,0.0,0.0,0.0
1752854738535,217.0,-52.0,-77.0,-7.0,4.0,1.0,0.4,-0.6,0.2,0.23,-0.37,0.54,0.72,0.0,0.0,0.0
1752854738584,216.0,-52.0,-74.0,-9.0,6.0,2.0,-0.1,0.3,0.2,0.24,-0.36,0.53,0.73,0.0,0.0,0.0
1752854738623,216.0,-54.0,-73.0,-8.0,4.0,1.0,0.2,-1.4,-0.2,0.24,-0.39,0.52,0.73,0.0,0.0,0.0
1752854738663,218.0,-56.0,-75.0,-8.0,4.0,2.0,0.6,-1.5,0.9,0.25,-0.4,0.52,0.71,0.0,0.0,0.0
1752854738703,218.0,-57.0,-74.0,-8.0,4.0,2.0,0.0,-0.6,0.0,0.25,-0.41,0.51,0.72,0.0,0.0,0.0
1752854738746,217.0,-58.0,-70.0,-8.0,5.0,2.0,-0.1,-0.2,0.4,0.24,-0.42,0.48,0.73,0.0,0.0,0.0
1752854738789,217.0,-59.0,-71.0,-8.0,4.0,2.0,0.0,-0.5,0.4,0.24,-0.43,0.48,0.73,0.0,0.0,0.0
1752854738937,219.0,-62.0,-74.0,-8.0,3.0,2.0,0.7,-1.5,0.4,0.25,-0.45,0.48,0.71,0.0,0.0,0.0
1752854738973,219.0,-63.0,-75.0,-9.0,4.0,1.0,0.1,-0.4,0.2,0.25,-0.46,0.48,0.71,0.0,0.0,0.0
1752854739013,219.0,-63.0,-74.0,-9.0,3.0,2.0,0.3,-1.9,0.3,0.25,-0.46,0.47,0.71,0.0,0.0,0.0
1752854739048,218.0,-64.0,-74.0,-9.0,4.0,2.0,0.5,-0.6,0.2,0.24,-0.47,0.46,0.71,0.0,0.0,0.0
1752854739102,216.0,-65.0,-72.0,-9.0,4.0,2.0,-0.2,0.0,0.2,0.23,-0.49,0.44,0.71,0.0,0.0,0.0
1752854739141,215.0,-66.0,-70.0,-9.0,3.0,1.0,0.0,-0.5,0.2,0.23,-0.5,0.43,0.72,0.0,0.0,0.0
1752854739177,214.0,-67.0,-71.0,-9.0,3.0,1.0,0.3,-1.0,0.1,0.22,-0.51,0.42,0.72,0.0,0.0,0.0
1752854739327,214.0,-73.0,-78.0,-9.0,2.0,1.0,0.2,-0.7,0.4,0.22,-0.57,0.38,0.7,0.0,0.0,0.0
1752854739365,213.0,-74.0,-80.0,-9.0,2.0,0.0,0.1,-1.2,0.0,0.21,-0.58,0.37,0.69,0.0,0.0,0.0
1752854739399,212.0,-74.0,-81.0,-9.0,2.0,0.0,0.4,-0.8,0.0,0.2,-0.59,0.36,0.69,0.0,0.0,0.0
1752854739548,209.0,-79.0,-83.0,-10.0,1.0,1.0,0.3,-0.6,0.1,0.18,-0.63,0.3,0.69,0.0,0.0,0.0
1752854739585,210.0,-80.0,-83.0,-9.0,1.0,0.0,0.4,-0.6,-0.0,0.19,-0.63,0.29,0.69,0.0,0.0,0.0
1752854739827,209.0,-85.0,-175.0,-10.0,1.0,-0.0,-0.0,-0.3,0.1,0.19,-0.64,0.29,0.69,0.0,0.0,0.0
1752854739867,209.0,-85.0,-176.0,-10.0,0.0,-0.0,-0.0,-0.3,0.1,0.17,-0.68,0.23,0.67,0.0,0.0,0.0
1752854739901,209.0,-85.0,-176.0,-9.0,0.0,-0.0,0.5,-0.4,0.0,0.17,-0.68,0.23,0.68,0.0,0.0,0.0
1752854739950,208.0,-85.0,-176.0,-10.0,0.0,-0.0,0.1,-0.1,0.2,0.17,-0.68,0.23,0.68,0.0,0.0,0.0
1752854739994,207.0,-85.0,-176.0,-10.0,1.0,-0.0,-0.0,-0.0,0.0,0.16,-0.68,0.22,0.68,0.0,0.0,0.0
1752854740050,207.0,-85.0,-176.0,-10.0,1.0,-0.0,0.4,-0.4,0.0,0.16,-0.68,0.22,0.68,0.0,0.0,0.0
1752854740084,205.0,-85.0,-175.0,-9.0,1.0,-0.0,0.2,-0.1,0.2,0.15,-0.68,0.21,0.68,0.0,0.0,0.0
1752854740228,201.0,-84.0,-175.0,-10.0,1.0,-0.0,0.2,-0.1,0.2,0.12,-0.69,0.19,0.68,0.0,0.0,0.0
1752854740370,201.0,-83.0,-118.0,-10.0,1.0,-1.0,0.1,-0.2,0.0,0.12,-0.7,0.19,0.68,0.0,0.0,0.0
1752854740713,197.0,-82.0,-112.0,-9.0,1.0,-0.0,0.5,-0.1,0.4,0.12,-0.7,0.21,0.68,0.0,0.0,0.0
1752854740754,188.0,-69.0,-88.0,-9.0,4.0,0.0,-0.0,0.7,0.2,0.05,-0.64,0.3,0.71,0.0,0.0,0.0
1752854740796,188.0,-66.0,-89.0,-8.0,4.0,-0.0,0.5,-0.3,-0.4,0.05,-0.62,0.34,0.71,0.0,0.0,0.0
1752854740932,181.0,-60.0,-88.0,-8.0,5.0,0.0,0.3,-0.1,0.2,0.04,-0.61,0.36,0.71,0.0,0.0,0.0
1752854741076,182.0,-59.0,-88.0,-8.0,5.0,-0.0,0.5,0.3,-0.5,0.01,-0.6,0.37,0.71,0.0,0.0,0.0
1752854741123,182.0,-62.0,-89.0,-9.0,5.0,0.0,0.3,0.0,0.1,0.01,-0.61,0.35,0.71,0.0,0.0,0.0
1752854741172,182.0,-64.0,-90.0,-8.0,4.0,-0.0,0.5,-0.5,-0.2,0.01,-0.63,0.32,0.71,0.0,0.0,0.0
1752854741208,184.0,-67.0,-92.0,-9.0,3.0,0.0,0.3,-0.5,0.3,0.02,-0.65,0.3,0.7,0.0,0.0,0.0
1752854741350,193.0,-74.0,-111.0,-9.0,2.0,-1.0,0.3,-0.5,-0.1,0.07,-0.69,0.27,0.67,0.0,0.0,0.0
1752854741392,196.0,-75.0,-114.0,-9.0,2.0,-1.0,0.3,-0.5,-0.2,0.09,-0.69,0.27,0.66,0.0,0.0,0.0
1752854741436,197.0,-76.0,-114.0,-9.0,2.0,-1.0,0.3,-0.5,0.1,0.1,-0.69,0.27,0.66,0.0,0.0,0.0
1752854741583,199.0,-76.0,-120.0,-9.0,2.0,-1.0,0.4,-0.4,0.2,0.11,-0.69,0.27,0.66,0.0,0.0,0.0
1752854741625,200.0,-76.0,-123.0,-9.0,2.0,-1.0,0.7,0.2,0.9,0.11,-0.7,0.28,0.65,0.0,0.0,0.0
1752854741660,202.0,-75.0,-127.0,-9.0,1.0,-2.0,0.1,-1.4,-0.8,0.12,-0.7,0.29,0.64,0.0,0.0,0.0
1752854741702,202.0,-74.0,-128.0,-10.0,1.0,-3.0,-0.2,-0.8,-1.1,0.12,-0.7,0.31,0.63,0.0,0.0,0.0
1752854741742,201.0,-74.0,-125.0,-9.0,2.0,-1.0,0.2,-0.3,0.1,0.12,-0.7,0.3,0.64,0.0,0.0,0.0
1752854741786,201.0,-75.0,-123.0,-9.0,1.0,-2.0,0.3,-0.8,-0.3,0.12,-0.7,0.29,0.65,0.0,0.0,0.0
1752854742029,191.0,-77.0,-93.0,-9.0,2.0,0.0,0.1,-0.1,0.0,0.12,-0.69,0.29,0.65,0.0,0.0,0.0
1752854742474,189.0,-77.0,-89.0,-9.0,2.0,0.0,0.2,-0.3,0.1,0.05,-0.67,0.21,0.71,0.0,0.0,0.0
1752854742507,179.0,-77.0,-60.0,-9.0,1.0,1.0,0.5,0.0,0.3,-0.01,-0.65,0.13,0.75,0.0,0.0,0.0
1752854742550,180.0,-78.0,-59.0,-10.0,2.0,1.0,0.3,0.1,0.3,0.0,-0.66,0.12,0.74,0.0,0.0,0.0
1752854742591,182.0,-82.0,-47.0,-9.0,0.0,1.0,0.4,-0.4,0.0,0.01,-0.66,0.09,0.74,0.0,0.0,0.0
1752854742633,184.0,-83.0,-4.0,-10.0,0.0,1.0,0.1,-0.2,0.2,0.02,-0.67,0.07,0.74,0.0,0.0,0.0
1752854742683,185.0,-84.0,-3.0,-9.0,-0.0,1.0,0.4,-0.4,0.3,0.03,-0.67,0.06,0.74,0.0,0.0,0.0
1752854742708,186.0,-85.0,-1.0,-10.0,-0.0,1.0,-0.0,-0.2,0.1,0.04,-0.67,0.04,0.74,0.0,0.0,0.0
1752854742754,187.0,-85.0,1.0,-10.0,-0.0,1.0,0.3,-0.1,-0.2,0.05,-0.68,0.04,0.74,0.0,0.0,0.0
1752854742801,186.0,-85.0,2.0,-10.0,-1.0,1.0,0.1,-0.3,0.1,0.04,-0.68,0.02,0.74,0.0,0.0,0.0
1752854742837,186.0,-84.0,4.0,-10.0,-1.0,1.0,0.3,0.1,0.6,0.04,-0.68,-0.01,0.73,0.0,0.0,0.0
1752854742991,188.0,-82.0,76.0,-10.0,-2.0,0.0,0.0,-0.0,-0.0,0.05,-0.69,-0.05,0.72,0.0,0.0,0.0
1752854743027,190.0,-81.0,81.0,-9.0,-2.0,1.0,0.5,-0.2,0.0,0.06,-0.7,-0.05,0.71,0.0,0.0,0.0
1752854743059,191.0,-80.0,80.0,-10.0,-2.0,0.0,0.3,-0.0,0.2,0.07,-0.69,-0.05,0.71,0.0,0.0,0.0
1752854743111,191.0,-80.0,82.0,-9.0,-2.0,0.0,0.2,-0.1,0.2,0.07,-0.7,-0.05,0.71,0.0,0.0,0.0
1752854743152,191.0,-80.0,83.0,-10.0,-2.0,0.0,0.2,-0.0,0.0,0.07,-0.7,-0.06,0.71,0.0,0.0,0.0
1752854743202,190.0,-80.0,82.0,-10.0,-2.0,-0.0,0.1,-0.0,0.4,0.06,-0.7,-0.06,0.71,0.0,0.0,0.0
1752854743245,190.0,-80.0,85.0,-10.0,-2.0,1.0,0.1,-0.0,0.6,0.06,-0.7,-0.06,0.71,0.0,0.0,0.0
1752854743286,191.0,-80.0,84.0,-10.0,-2.0,0.0,-0.2,0.1,0.3,0.07,-0.7,-0.05,0.71,0.0,0.0,0.0
1752854743429,204.0,-74.0,103.0,-9.0,-3.0,0.0,3.4,-0.4,1.9,0.08,-0.7,-0.05,0.71,0.0,0.0,0.0
1752854743463,211.0,-70.0,108.0,-8.0,-4.0,-2.0,0.1,-0.1,0.1,0.18,-0.74,-0.04,0.65,0.0,0.0,0.0
1752854743503,215.0,-69.0,113.0,-10.0,-3.0,-1.0,-0.4,0.2,0.4,0.2,-0.75,-0.02,0.63,0.0,0.0,0.0
1752854743546,219.0,-67.0,110.0,-12.0,-10.0,-1.0,-3.1,-6.4,0.3,0.22,-0.75,-0.02,0.62,0.0,0.0,0.0
1752854743587,219.0,-68.0,111.0,-9.0,-3.0,-2.0,-0.5,1.0,-0.1,0.22,-0.75,-0.02,0.62,0.0,0.0,0.0
1752854743627,221.0,-67.0,114.0,-9.0,-3.0,-1.0,0.1,0.1,0.3,0.23,-0.76,-0.01,0.61,0.0,0.0,0.0
1752854743663,224.0,-65.0,113.0,-8.0,-4.0,-2.0,1.1,-0.1,0.2,0.24,-0.76,-0.01,0.6,0.0,0.0,0.0
1752854743713,230.0,-62.0,111.0,-10.0,-5.0,-1.0,-1.1,-0.8,1.2,0.27,-0.76,-0.02,0.59,0.0,0.0,0.0
1752854743754,237.0,-58.0,108.0,-8.0,-4.0,-2.0,0.4,0.6,-0.2,0.3,-0.76,-0.02,0.57,0.0,0.0,0.0
1752854743898,243.0,-55.0,106.0,-7.0,-7.0,-2.0,-0.2,-0.1,0.1,0.33,-0.76,-0.04,0.56,0.0,0.0,0.0
1752854743948,261.0,-45.0,104.0,-7.0,-7.0,-2.0,0.0,-0.1,-0.4,0.42,-0.76,-0.06,0.49,0.0,0.0,0.0
1752854743981,267.0,-41.0,102.0,-6.0,-8.0,-1.0,1.2,-0.1,0.5,0.44,-0.76,-0.07,0.48,0.0,0.0,0.0
1752854744116,282.0,-31.0,99.0,-5.0,-8.0,-1.0,0.2,0.0,-0.1,0.51,-0.75,-0.1,0.42,0.0,0.0,0.0
1752854744155,284.0,-28.0,99.0,-5.0,-9.0,-1.0,0.0,-0.3,-0.2,0.52,-0.74,-0.12,0.41,0.0,0.0,0.0
1752854744197,286.0,-27.0,98.0,-4.0,-8.0,-1.0,0.4,0.2,0.1,0.52,-0.74,-0.13,0.4,0.0,0.0,0.0
1752854744340,287.0,-26.0,97.0,-3.0,-9.0,-1.0,-0.0,-0.0,0.0,0.53,-0.73,-0.14,0.4,0.0,0.0,0.0
1752854744382,293.0,-19.0,96.0,-3.0,-9.0,-1.0,0.0,-0.2,-0.1,0.56,-0.72,-0.19,0.37,0.0,0.0,0.0
1752854744515,294.0,-17.0,95.0,-3.0,-9.0,-1.0,-0.2,0.0,-0.1,0.56,-0.72,-0.19,0.37,0.0,0.0,0.0
1752854744563,295.0,-17.0,95.0,-3.0,-9.0,-1.0,-0.0,-0.1,-0.0,0.57,-0.71,-0.2,0.36,0.0,0.0,0.0
1752854744616,295.0,-16.0,95.0,-3.0,-10.0,-1.0,-0.3,-0.2,-0.2,0.57,-0.71,-0.2,0.36,0.0,0.0,0.0
1752854744766,296.0,-15.0,95.0,-3.0,-10.0,-1.0,0.1,0.0,-0.0,0.58,-0.7,-0.21,0.36,0.0,0.0,0.0
1752854744915,296.0,-14.0,95.0,-3.0,-10.0,-1.0,-0.1,-0.2,-0.1,0.57,-0.7,-0.23,0.36,0.0,0.0,0.0
1752854745052,295.0,-13.0,96.0,-2.0,-9.0,-1.0,-0.2,0.0,-0.1,0.57,-0.7,-0.24,0.36,0.0,0.0,0.0
1752854745100,295.0,-13.0,96.0,-2.0,-9.0,-1.0,0.1,-0.2,-0.2,0.57,-0.7,-0.25,0.36,0.0,0.0,0.0
1752854745357,277.0,-24.0,110.0,-2.0,-7.0,-4.0,-0.1,0.3,0.3,0.56,-0.7,-0.25,0.36,0.0,0.0,0.0
1752854745391,271.0,-27.0,114.0,-5.0,-8.0,-3.0,-0.4,-0.9,0.7,0.41,-0.79,-0.22,0.39,0.0,0.0,0.0
1752854745438,264.0,-31.0,118.0,-6.0,-7.0,-4.0,-0.1,-0.1,0.2,0.37,-0.81,-0.19,0.41,0.0,0.0,0.0
1752854745476,257.0,-35.0,123.0,-5.0,-6.0,-5.0,0.1,-0.0,0.0,0.33,-0.83,-0.17,0.41,0.0,0.0,0.0
1752854745510,252.0,-38.0,126.0,-7.0,-6.0,-4.0,-0.9,-0.4,0.6,0.31,-0.84,-0.15,0.42,0.0,0.0,0.0
1752854745557,246.0,-42.0,130.0,-6.0,-8.0,-4.0,0.5,-2.4,1.0,0.29,-0.85,-0.13,0.43,0.0,0.0,0.0
1752854745602,238.0,-46.0,137.0,-6.0,-8.0,-4.0,1.7,-2.7,0.1,0.24,-0.87,-0.07,0.43,0.0,0.0,0.0
1752854745748,134.0,-35.0,-147.0,2.0,6.0,-8.0,7.1,0.7,-1.2,-0.16,-0.89,0.23,0.37,0.0,0.0,0.0
1752854745782,99.0,-25.0,-132.0,-3.0,8.0,-4.0,0.8,1.2,0.8,-0.29,-0.86,0.26,0.34,0.0,0.0,0.0
1752854745829,83.0,-19.0,-120.0,-2.0,12.0,-3.0,0.4,3.2,1.3,-0.38,-0.81,0.29,0.34,0.0,0.0,0.0
1752854745864,76.0,-14.0,-117.0,-3.0,11.0,-3.0,-0.8,2.2,1.5,-0.41,-0.79,0.32,0.33,0.0,0.0,0.0
1752854745902,74.0,-12.0,-115.0,-2.0,9.0,-4.0,0.1,0.8,0.3,-0.43,-0.78,0.33,0.33,0.0,0.0,0.0
1752854746053,74.0,-12.0,-115.0,-3.0,8.0,-4.0,-0.4,-0.2,0.3,-0.43,-0.77,0.34,0.33,0.0,0.0,0.0
1752854746087,76.0,-16.0,-119.0,-3.0,7.0,-4.0,0.0,-0.6,0.3,-0.41,-0.81,0.29,0.32,0.0,0.0,0.0
1752854746120,77.0,-18.0,-120.0,-4.0,8.0,-5.0,-0.2,-0.0,-0.1,-0.4,-0.82,0.27,0.32,0.0,0.0,0.0
1752854746166,79.0,-19.0,-121.0,-4.0,8.0,-4.0,-0.7,-0.5,0.2,-0.39,-0.82,0.27,0.32,0.0,0.0,0.0
1752854746317,84.0,-20.0,-124.0,-4.0,7.0,-5.0,-0.3,-1.7,0.3,-0.36,-0.83,0.27,0.33,0.0,0.0,0.0
1752854746451,69.0,-17.0,-119.0,-3.0,8.0,-4.0,0.3,-0.4,0.2,-0.42,-0.83,0.22,0.29,0.0,0.0,0.0
1752854746746,54.0,-15.0,-116.0,-2.0,8.0,-4.0,0.3,-0.0,-0.1,-0.48,-0.83,0.15,0.25,0.0,0.0,0.0
1752854746749,55.0,-15.0,-120.0,-3.0,8.0,-5.0,0.2,0.8,-0.4,-0.45,-0.85,0.15,0.24,0.0,0.0,0.0
1752854746780,57.0,-16.0,-126.0,-3.0,6.0,-6.0,-0.4,-0.2,0.0,-0.41,-0.87,0.15,0.22,0.0,0.0,0.0
1752854746816,60.0,-16.0,-131.0,-3.0,6.0,-6.0,-0.0,-1.0,0.0,-0.38,-0.89,0.15,0.22,0.0,0.0,0.0
1752854746855,61.0,-16.0,-132.0,-3.0,7.0,-6.0,-0.1,-0.5,0.3,-0.37,-0.89,0.15,0.22,0.0,0.0,0.0
1752854747001,62.0,-16.0,-134.0,-3.0,6.0,-7.0,-0.3,-1.1,0.2,-0.35,-0.9,0.15,0.21,0.0,0.0,0.0
1752854747044,198.0,-15.0,-141.0,-2.0,5.0,-7.0,-0.0,-0.5,0.1,-0.3,-0.92,0.14,0.19,0.0,0.0,0.0
1752854747088,198.0,-14.0,-143.0,-2.0,5.0,-8.0,-0.1,-0.4,0.1,-0.28,-0.93,0.15,0.18,0.0,0.0,0.0
1752854747138,199.0,-13.0,-146.0,-2.0,5.0,-8.0,0.0,-0.2,-0.1,-0.27,-0.94,0.15,0.16,0.0,0.0,0.0
1752854747167,199.0,-12.0,-148.0,-2.0,5.0,-8.0,0.1,-0.7,-0.1,-0.25,-0.94,0.16,0.15,0.0,0.0,0.0
1752854747217,199.0,-11.0,-151.0,-2.0,4.0,-8.0,0.0,-0.2,-0.2,-0.23,-0.95,0.17,0.14,0.0,0.0,0.0
1752854747255,200.0,-10.0,-153.0,-2.0,4.0,-9.0,0.0,-0.2,0.0,-0.22,-0.95,0.17,0.13,0.0,0.0,0.0
1752854747405,203.0,-6.0,-161.0,-1.0,2.0,-9.0,0.1,-0.8,-0.0,-0.15,-0.97,0.2,0.09,0.0,0.0,0.0
1752854747438,205.0,-4.0,-163.0,-1.0,2.0,-9.0,0.0,-0.7,0.0,-0.14,-0.96,0.21,0.07,0.0,0.0,0.0
1752854747479,207.0,-2.0,-162.0,-0.0,2.0,-9.0,-0.2,0.3,0.4,-0.15,-0.96,0.23,0.05,0.0,0.0,0.0
1752854747522,210.0,3.0,-160.0,1.0,4.0,-10.0,0.2,0.3,-0.4,-0.16,-0.95,0.25,0.03,0.0,0.0,0.0
1752854747572,212.0,6.0,-159.0,1.0,2.0,-9.0,-0.2,-0.7,0.1,-0.18,-0.95,0.27,0.01,0.0,0.0,0.0
1752854747705,220.0,14.0,-155.0,2.0,4.0,-9.0,-0.3,-0.3,-0.2,-0.24,-0.91,0.33,-0.05,0.0,0.0,0.0
1752854747753,221.0,16.0,-153.0,3.0,4.0,-9.0,0.1,0.1,-0.3,-0.26,-0.9,0.34,-0.06,0.0,0.0,0.0
1752854747789,222.0,17.0,-152.0,3.0,4.0,-8.0,-0.1,-0.4,-0.2,-0.27,-0.9,0.34,-0.06,0.0,0.0,0.0
1752854747828,222.0,18.0,-152.0,3.0,4.0,-8.0,-0.1,-0.5,-0.1,-0.27,-0.9,0.35,-0.07,0.0,0.0,0.0
1752854747870,223.0,19.0,-151.0,3.0,4.0,-8.0,-0.1,-0.2,-0.1,-0.29,-0.89,0.35,-0.07,0.0,0.0,0.0
1752854748020,223.0,19.0,-148.0,3.0,6.0,-7.0,-0.3,-0.0,-0.3,-0.3,-0.88,0.35,-0.06,0.0,0.0,0.0
1752854748057,351.0,19.0,-135.0,3.0,6.0,-7.0,-0.1,-0.3,-0.1,-0.41,-0.85,0.34,-0.03,0.0,0.0,0.0
1752854748092,352.0,19.0,-134.0,3.0,6.0,-6.0,-0.4,-0.7,0.1,-0.41,-0.85,0.33,-0.03,0.0,0.0,0.0
1752854748133,354.0,18.0,-131.0,2.0,4.0,-5.0,0.1,-0.5,0.1,-0.43,-0.84,0.32,-0.02,0.0,0.0,0.0
1752854748175,356.0,18.0,-128.0,3.0,7.0,-6.0,-0.1,-0.6,-0.2,-0.46,-0.84,0.31,-0.02,0.0,0.0,0.0
1752854748316,5.0,13.0,-109.0,2.0,9.0,-3.0,-0.3,-0.2,-0.1,-0.48,-0.83,0.29,-0.0,0.0,0.0,0.0
1752854748359,6.0,12.0,-108.0,2.0,8.0,-3.0,-0.2,-0.7,-0.3,-0.59,-0.78,0.22,0.03,0.0,0.0,0.0
1752854748500,7.0,9.0,-107.0,1.0,9.0,-3.0,0.2,-0.1,-0.1,-0.6,-0.78,0.2,0.03,0.0,0.0,0.0
1752854748543,8.0,8.0,-108.0,1.0,9.0,-3.0,0.0,-0.5,-0.2,-0.59,-0.79,0.18,0.04,0.0,0.0,0.0
1752854748684,16.0,1.0,-109.0,0.0,8.0,-3.0,0.3,0.0,0.3,-0.59,-0.79,0.17,0.05,0.0,0.0,0.0
1752854748720,21.0,-3.0,-112.0,-1.0,10.0,-4.0,0.3,0.0,-0.3,-0.55,-0.82,0.11,0.1,0.0,0.0,0.0
1752854748765,27.0,-7.0,-116.0,-1.0,9.0,-4.0,0.2,0.1,0.0,-0.53,-0.84,0.09,0.12,0.0,0.0,0.0
1752854748808,31.0,-10.0,-118.0,-2.0,8.0,-5.0,0.0,-0.4,0.2,-0.5,-0.85,0.06,0.14,0.0,0.0,0.0
1752854748843,37.0,-14.0,-122.0,-3.0,7.0,-5.0,0.2,-0.7,0.1,-0.47,-0.87,0.04,0.16,0.0,0.0,0.0
1752854748879,43.0,-17.0,-126.0,-3.0,6.0,-6.0,0.2,-0.7,-0.2,-0.44,-0.88,0.01,0.17,0.0,0.0,0.0
1752854748922,48.0,-20.0,-129.0,-3.0,6.0,-6.0,-0.2,-0.8,0.2,-0.41,-0.89,-0.01,0.18,0.0,0.0,0.0
1752854748979,54.0,-23.0,-131.0,-4.0,6.0,-6.0,-0.1,-1.1,-0.0,-0.4,-0.89,-0.03,0.2,0.0,0.0,0.0
1752854749014,59.0,-26.0,-133.0,-4.0,5.0,-6.0,-0.1,-1.1,-0.2,-0.38,-0.9,-0.07,0.21,0.0,0.0,0.0
1752854749057,61.0,-27.0,-135.0,-5.0,7.0,-5.0,0.0,1.2,0.7,-0.37,-0.9,-0.08,0.22,0.0,0.0,0.0
1752854749102,62.0,-29.0,-135.0,-5.0,6.0,-6.0,0.2,0.0,0.0,-0.37,-0.89,-0.11,0.22,0.0,0.0,0.0
1752854749152,64.0,-31.0,-135.0,-5.0,5.0,-6.0,0.0,-0.3,0.5,-0.38,-0.88,-0.14,0.24,0.0,0.0,0.0
1752854749188,66.0,-33.0,-135.0,-6.0,6.0,-4.0,0.1,-1.9,-0.3,-0.38,-0.88,-0.15,0.25,0.0,0.0,0.0
1752854749221,69.0,-34.0,-137.0,-6.0,6.0,-6.0,-0.1,-0.4,-0.1,-0.36,-0.88,-0.16,0.25,0.0,0.0,0.0
1752854749367,77.0,-34.0,-144.0,-5.0,4.0,-7.0,0.2,-0.9,0.0,-0.32,-0.9,-0.17,0.25,0.0,0.0,0.0
1752854749420,77.0,-34.0,-145.0,-6.0,5.0,-6.0,-0.1,0.2,0.6,-0.32,-0.9,-0.17,0.25,0.0,0.0,0.0
1752854749451,77.0,-33.0,-146.0,-5.0,4.0,-7.0,-0.0,-0.3,0.0,-0.31,-0.9,-0.17,0.25,0.0,0.0,0.0
1752854749486,77.0,-32.0,-147.0,-5.0,3.0,-7.0,0.0,-1.0,-0.0,-0.3,-0.91,-0.17,0.24,0.0,0.0,0.0
1752854749632,67.0,-29.0,-144.0,-5.0,5.0,-6.0,0.1,-0.4,0.5,-0.29,-0.91,-0.16,0.24,0.0,0.0,0.0
1752854749780,50.0,-28.0,-131.0,-4.0,7.0,-5.0,-0.4,-0.3,0.5,-0.39,-0.88,-0.16,0.2,0.0,0.0,0.0
1752854749833,39.0,-29.0,-113.0,-5.0,7.0,-3.0,-0.2,-0.9,0.5,-0.54,-0.81,-0.16,0.19,0.0,0.0,0.0
1752854749966,34.0,-31.0,-87.0,-3.0,7.0,-0.0,1.7,-1.2,-1.2,-0.67,-0.69,-0.17,0.2,0.0,0.0,0.0
1752854750012,35.0,-34.0,-73.0,-6.0,5.0,6.0,-0.6,-2.0,2.3,-0.75,-0.59,-0.19,0.24,0.0,0.0,0.0
1752854750048,39.0,-37.0,-61.0,-6.0,5.0,5.0,2.0,3.1,-3.5,-0.78,-0.52,-0.19,0.28,0.0,0.0,0.0
1752854750082,42.0,-38.0,-55.0,-6.0,5.0,6.0,-0.5,-1.2,1.3,-0.8,-0.48,-0.2,0.3,0.0,0.0,0.0
1752854750133,45.0,-41.0,-47.0,-7.0,3.0,5.0,-0.3,-1.3,0.0,-0.8,-0.44,-0.23,0.33,0.0,0.0,0.0
1752854750267,55.0,-47.0,-50.0,-8.0,3.0,5.0,-0.4,-2.1,0.3,-0.75,-0.47,-0.24,0.39,0.0,0.0,0.0
1752854750317,56.0,-47.0,-50.0,-7.0,4.0,4.0,0.0,-0.8,-0.3,-0.75,-0.47,-0.23,0.4,0.0,0.0,0.0
1752854750347,57.0,-47.0,-51.0,-7.0,4.0,4.0,0.2,-1.1,-0.8,-0.75,-0.48,-0.23,0.4,0.0,0.0,0.0
1752854750391,56.0,-47.0,-51.0,-7.0,5.0,4.0,0.1,-0.6,-0.3,-0.75,-0.48,-0.23,0.4,0.0,0.0,0.0
1752854750531,59.0,-46.0,-57.0,-7.0,5.0,3.0,0.1,-0.6,-0.5,-0.75,-0.48,-0.23,0.4,0.0,0.0,0.0
1752854750567,59.0,-46.0,-59.0,-7.0,5.0,4.0,-0.0,-0.6,0.1,-0.72,-0.53,-0.2,0.41,0.0,0.0,0.0
1752854750617,59.0,-46.0,-59.0,-7.0,5.0,3.0,0.1,-0.4,-0.8,-0.71,-0.53,-0.2,0.41,0.0,0.0,0.0
1752854750853,59.0,-46.0,-60.0,-7.0,5.0,4.0,0.0,-0.3,0.1,-0.71,-0.53,-0.2,0.41,0.0,0.0,0.0
1752854750903,60.0,-45.0,-52.0,-7.0,5.0,4.0,0.2,-0.7,-0.6,-0.73,-0.5,-0.19,0.43,0.0,0.0,0.0
1752854750938,60.0,-44.0,-46.0,-6.0,4.0,4.0,0.5,-0.5,-0.6,-0.75,-0.47,-0.2,0.43,0.0,0.0,0.0
1752854750968,60.0,-44.0,-40.0,-6.0,4.0,4.0,0.5,-0.4,-1.0,-0.76,-0.43,-0.21,0.44,0.0,0.0,0.0
1752854751014,62.0,-43.0,-39.0,-6.0,4.0,6.0,-0.8,-0.8,0.3,-0.76,-0.42,-0.2,0.46,0.0,0.0,0.0
1752854751370,59.0,-42.0,6.0,-6.0,-2.0,5.0,0.9,-1.0,-2.0,-0.81,-0.15,-0.33,0.46,0.0,0.0,0.0
1752854751417,59.0,-41.0,11.0,-7.0,-2.0,7.0,-0.6,-0.4,0.2,-0.81,-0.11,-0.35,0.46,0.0,0.0,0.0
1752854751455,59.0,-40.0,21.0,-7.0,-4.0,8.0,-0.2,-0.2,2.0,-0.81,-0.04,-0.38,0.45,0.0,0.0,0.0
1752854751501,59.0,-42.0,37.0,-7.0,-5.0,5.0,0.5,-0.8,-0.3,-0.78,0.03,-0.45,0.44,0.0,0.0,0.0
1752854751537,58.0,-42.0,46.0,-6.0,-6.0,4.0,-0.3,-1.7,0.8,-0.76,0.08,-0.48,0.43,0.0,0.0,0.0
1752854751578,57.0,-42.0,55.0,-6.0,-6.0,3.0,0.3,-0.0,-0.7,-0.74,0.12,-0.52,0.4,0.0,0.0,0.0
1752854751621,56.0,-43.0,61.0,-6.0,-5.0,2.0,0.4,0.9,-1.0,-0.73,0.14,-0.55,0.39,0.0,0.0,0.0
1752854751661,56.0,-43.0,63.0,-7.0,-8.0,4.0,-0.3,-1.6,0.6,-0.72,0.15,-0.56,0.39,0.0,0.0,0.0
1752854751704,56.0,-44.0,65.0,-6.0,-5.0,4.0,0.3,-0.9,-1.1,-0.71,0.16,-0.57,0.38,0.0,0.0,0.0
1752854751738,56.0,-45.0,68.0,-6.0,-6.0,2.0,0.8,-1.5,-0.9,-0.7,0.16,-0.58,0.37,0.0,0.0,0.0
1752854751784,54.0,-46.0,70.0,-8.0,-9.0,4.0,-0.4,-2.5,2.5,-0.7,0.16,-0.6,0.36,0.0,0.0,0.0
1752854751935,46.0,-55.0,93.0,-7.0,-4.0,-2.0,0.4,0.1,-1.6,-0.7,0.16,-0.62,0.32,0.0,0.0,0.0
1752854752274,55.0,-49.0,105.0,-7.0,-7.0,-2.0,0.6,-0.7,-0.4,-0.58,0.18,-0.74,0.28,0.0,0.0,0.0
1752854752324,55.0,-49.0,104.0,-7.0,-7.0,-1.0,0.2,-0.3,0.0,-0.58,0.17,-0.74,0.3,0.0,0.0,0.0
1752854752374,55.0,-49.0,103.0,-7.0,-7.0,-2.0,0.4,-0.3,-0.6,-0.58,0.17,-0.74,0.3,0.0,0.0,0.0
1752854752407,54.0,-49.0,104.0,-7.0,-7.0,-2.0,0.1,-1.4,0.3,-0.58,0.17,-0.74,0.3,0.0,0.0,0.0
1752854752441,53.0,-49.0,105.0,-7.0,-7.0,-1.0,-0.0,-1.5,-0.1,-0.58,0.17,-0.74,0.29,0.0,0.0,0.0
1752854752488,52.0,-50.0,107.0,-7.0,-6.0,-3.0,0.9,-0.3,-1.2,-0.57,0.17,-0.75,0.28,0.0,0.0,0.0
1752854752524,48.0,-51.0,112.0,-7.0,-5.0,-2.0,0.2,0.6,0.4,-0.57,0.17,-0.76,0.26,0.0,0.0,0.0
1752854752574,44.0,-52.0,114.0,-8.0,-5.0,-2.0,-0.1,-0.0,0.1,-0.57,0.18,-0.77,0.23,0.0,0.0,0.0
1752854752608,41.0,-53.0,117.0,-8.0,-4.0,-3.0,0.4,0.7,-0.3,-0.57,0.19,-0.77,0.21,0.0,0.0,0.0
1752854752641,39.0,-53.0,118.0,-8.0,-5.0,-2.0,-0.3,-0.3,0.6,-0.57,0.19,-0.78,0.2,0.0,0.0,0.0
1752854752682,37.0,-54.0,119.0,-7.0,-5.0,-3.0,0.5,0.4,-0.4,-0.57,0.19,-0.78,0.19,0.0,0.0,0.0
1752854752726,37.0,-54.0,119.0,-7.0,-4.0,-3.0,0.6,0.7,-0.1,-0.57,0.19,-0.78,0.19,0.0,0.0,0.0
1752854752776,35.0,-55.0,118.0,-8.0,-5.0,-3.0,0.2,0.1,0.0,-0.57,0.2,-0.77,0.18,0.0,0.0,0.0
1752854752818,35.0,-54.0,119.0,-8.0,-5.0,-3.0,0.2,0.0,-0.1,-0.57,0.2,-0.78,0.18,0.0,0.0,0.0
1752854753060,37.0,-55.0,117.0,-8.0,-6.0,-3.0,0.2,-0.4,-0.3,-0.57,0.21,-0.77,0.18,0.0,0.0,0.0
1752854753210,38.0,-55.0,115.0,-8.0,-5.0,-3.0,0.3,-0.4,0.1,-0.58,0.18,-0.77,0.2,0.0,0.0,0.0
1752854753255,39.0,-55.0,114.0,-8.0,-10.0,-3.0,0.9,-2.8,-0.8,-0.58,0.18,-0.76,0.21,0.0,0.0,0.0
1752854753293,40.0,-57.0,114.0,-7.0,-5.0,-2.0,1.5,0.1,-0.1,-0.59,0.15,-0.77,0.21,0.0,0.0,0.0
1752854753435,36.0,-67.0,116.0,-9.0,-3.0,-2.0,0.0,-0.0,0.4,-0.59,0.08,-0.77,0.24,0.0,0.0,0.0
1752854753588,37.0,-72.0,101.0,-9.0,-4.0,-1.0,0.1,-0.7,-0.6,-0.65,-0.01,-0.73,0.22,0.0,0.0,0.0
1752854753621,36.0,-72.0,99.0,-9.0,-3.0,-1.0,0.4,-0.3,-0.1,-0.66,-0.0,-0.72,0.21,0.0,0.0,0.0
1752854753771,32.0,-74.0,97.0,-9.0,-1.0,1.0,0.0,1.2,1.4,-0.67,0.0,-0.72,0.19,0.0,0.0,0.0
1752854753821,36.0,-73.0,93.0,-9.0,-3.0,-1.0,-0.1,-1.4,0.4,-0.67,-0.02,-0.71,0.22,0.0,0.0,0.0
1752854753846,36.0,-73.0,92.0,-9.0,-3.0,-1.0,-0.1,0.1,-0.9,-0.67,-0.01,-0.71,0.22,0.0,0.0,0.0
1752854753888,38.0,-73.0,79.0,-10.0,-4.0,-0.0,-0.7,-1.8,-0.8,-0.68,-0.02,-0.7,0.22,0.0,0.0,0.0
1752854753935,50.0,-76.0,51.0,-8.0,1.0,-0.0,1.5,2.5,-2.0,-0.69,-0.12,-0.65,0.3,0.0,0.0,0.0
1752854753972,56.0,-75.0,21.0,-8.0,-0.0,1.0,1.4,-0.1,-2.0,-0.69,-0.24,-0.57,0.37,0.0,0.0,0.0
1752854754019,60.0,-69.0,-16.0,-9.0,6.0,5.0,1.5,2.5,-0.6,-0.71,-0.34,-0.47,0.41,0.0,0.0,0.0
1752854754055,64.0,-60.0,-38.0,-8.0,8.0,8.0,-0.4,3.8,5.9,-0.71,-0.43,-0.34,0.44,0.0,0.0,0.0
1752854754089,72.0,-52.0,-45.0,-8.0,2.0,5.0,0.1,-2.7,1.1,-0.68,-0.48,-0.22,0.5,0.0,0.0,0.0
1752854754130,79.0,-49.0,-57.0,-7.0,5.0,5.0,0.0,-0.5,1.3,-0.64,-0.54,-0.15,0.52,0.0,0.0,0.0
1752854754172,82.0,-47.0,-62.0,-7.0,3.0,4.0,0.1,-2.6,1.1,-0.61,-0.57,-0.1,0.53,0.0,0.0,0.0
1752854754206,84.0,-46.0,-67.0,-7.0,7.0,4.0,0.2,-0.4,0.0,-0.59,-0.6,-0.06,0.53,0.0,0.0,0.0
1752854754246,85.0,-44.0,-74.0,-7.0,6.0,1.0,0.0,-0.6,-0.1,-0.57,-0.63,-0.03,0.52,0.0,0.0,0.0
1752854754289,85.0,-42.0,-78.0,-7.0,7.0,2.0,-0.0,-0.3,-0.7,-0.56,-0.65,-0.0,0.51,0.0,0.0,0.0
1752854754339,85.0,-41.0,-84.0,-7.0,8.0,1.0,-0.1,-0.1,0.5,-0.54,-0.67,0.01,0.5,0.0,0.0,0.0
1752854754386,88.0,-40.0,-91.0,-6.0,6.0,-1.0,0.1,-1.9,-0.3,-0.51,-0.71,0.05,0.49,0.0,0.0,0.0
1752854754524,88.0,-39.0,-93.0,-6.0,7.0,-1.0,0.3,-0.5,-0.3,-0.5,-0.72,0.06,0.48,0.0,0.0,0.0
1752854754558,89.0,-39.0,-96.0,-6.0,7.0,-2.0,-0.4,-0.3,0.6,-0.48,-0.73,0.07,0.47,0.0,0.0,0.0
1752854754608,88.0,-40.0,-93.0,-6.0,7.0,-1.0,0.0,-0.7,-0.4,-0.5,-0.72,0.05,0.48,0.0,0.0,0.0
1752854754642,88.0,-39.0,-93.0,-6.0,7.0,-1.0,0.3,-0.7,-0.3,-0.5,-0.72,0.06,0.48,0.0,0.0,0.0
1752854754693,87.0,-39.0,-92.0,-6.0,7.0,0.0,0.0,-0.5,0.3,-0.5,-0.72,0.06,0.48,0.0,0.0,0.0
1752854754727,87.0,-40.0,-90.0,-6.0,7.0,-1.0,0.0,-0.5,-0.6,-0.51,-0.71,0.05,0.49,0.0,0.0,0.0
1752854754766,86.0,-40.0,-88.0,-6.0,7.0,0.0,0.1,0.1,0.8,-0.52,-0.7,0.04,0.49,0.0,0.0,0.0
1752854754795,84.0,-40.0,-84.0,-8.0,4.0,1.0,0.3,-1.0,-0.3,-0.55,-0.68,0.02,0.49,0.0,0.0,0.0
1752854754839,81.0,-41.0,-78.0,-7.0,6.0,2.0,0.5,-0.3,-0.0,-0.58,-0.65,-0.01,0.5,0.0,0.0,0.0
1752854754885,80.0,-42.0,-76.0,-6.0,6.0,1.0,0.0,-0.4,-0.4,-0.59,-0.64,-0.02,0.5,0.0,0.0,0.0
1752854754936,80.0,-41.0,-76.0,-6.0,7.0,2.0,0.1,-0.5,-0.1,-0.59,-0.64,-0.02,0.49,0.0,0.0,0.0
1752854754980,80.0,-41.0,-76.0,-6.0,7.0,2.0,0.0,-0.6,-0.2,-0.59,-0.64,-0.02,0.5,0.0,0.0,0.0
1752854755026,80.0,-41.0,-75.0,-6.0,7.0,2.0,0.1,-0.5,0.0,-0.59,-0.64,-0.02,0.5,0.0,0.0,0.0
1752854755180,79.0,-40.0,-74.0,-6.0,7.0,2.0,0.2,-0.4,-0.2,-0.59,-0.63,-0.02,0.5,0.0,0.0,0.0
1752854755330,79.0,-40.0,-73.0,-6.0,7.0,2.0,0.2,-0.4,-0.3,-0.6,-0.63,-0.02,0.49,0.0,0.0,0.0
1752854755478,79.0,-38.0,-72.0,-6.0,7.0,2.0,0.0,-0.4,-0.1,-0.6,-0.62,-0.02,0.5,0.0,0.0,0.0
1752854755739,79.0,-37.0,-72.0,-6.0,7.0,2.0,0.3,-0.4,-0.2,-0.61,-0.62,0.01,0.5,0.0,0.0,0.0
1752854755886,81.0,-46.0,-66.0,-6.0,7.0,3.0,-7.0,6.5,1.5,-0.61,-0.62,0.01,0.5,0.0,0.0,0.0
1752854755923,84.0,-54.0,-64.0,-8.0,2.0,-0.0,0.4,-2.0,-3.3,-0.59,-0.59,-0.16,0.53,0.0,0.0,0.0
1752854755973,80.0,-63.0,-30.0,-9.0,3.0,5.0,-0.0,0.8,-0.4,-0.64,-0.45,-0.32,0.54,0.0,0.0,0.0
1752854756006,82.0,-64.0,-17.0,-9.0,3.0,3.0,-1.2,0.9,0.6,-0.64,-0.41,-0.36,0.55,0.0,0.0,0.0
1752854756039,82.0,-57.0,-17.0,-10.0,8.0,8.0,-2.4,7.1,4.3,-0.66,-0.38,-0.31,0.57,0.0,0.0,0.0
1752854756089,84.0,-49.0,-17.0,-10.0,9.0,13.0,-2.4,7.9,7.3,-0.67,-0.38,-0.24,0.6,0.0,0.0,0.0
1752854756223,90.0,-52.0,-8.0,-6.0,0.0,7.0,2.2,-0.1,2.4,-0.64,-0.34,-0.28,0.63,0.0,0.0,0.0
1752854756273,129.0,-58.0,-5.0,-7.0,-0.0,8.0,1.2,-1.7,3.3,-0.37,-0.45,-0.18,0.79,0.0,0.0,0.0
1752854756307,142.0,-55.0,-5.0,-7.0,-3.0,12.0,-0.7,1.3,2.7,-0.29,-0.44,-0.12,0.84,0.0,0.0,0.0
1752854756341,153.0,-60.0,3.0,-9.0,-0.0,-1.0,0.0,0.4,-5.3,-0.22,-0.47,-0.13,0.84,0.0,0.0,0.0
1752854756390,160.0,-63.0,12.0,-9.0,-3.0,-1.0,-0.1,-2.4,-3.9,-0.16,-0.51,-0.14,0.83,0.0,0.0,0.0
1752854756643,154.0,-37.0,17.0,-1.0,-7.0,12.0,4.3,-4.7,4.0,-0.2,-0.3,-0.19,0.91,0.0,0.0,0.0
1752854756676,150.0,-26.0,18.0,2.0,-9.0,20.0,5.3,-6.7,11.6,-0.24,-0.19,-0.2,0.93,0.0,0.0,0.0
1752854756763,145.0,-19.0,12.0,-4.0,-8.0,19.0,6.8,-5.1,4.0,-0.29,-0.13,-0.15,0.94,0.0,0.0,0.0
1752854756763,139.0,-29.0,-4.0,2.0,-4.0,6.0,3.3,-4.6,-1.8,-0.34,-0.24,-0.06,0.91,0.0,0.0,0.0
1752854756815,128.0,-37.0,-10.0,-3.0,2.0,4.0,7.5,2.9,-2.6,-0.41,-0.32,-0.08,0.85,0.0,0.0,0.0
1752854756834,113.0,-38.0,-12.0,-2.0,8.0,17.0,3.9,6.6,9.1,-0.51,-0.33,-0.09,0.79,0.0,0.0,0.0
1752854756884,118.0,-44.0,-8.0,-3.0,-8.0,8.0,5.0,-8.4,1.7,-0.48,-0.35,-0.15,0.79,0.0,0.0,0.0
1752854756919,122.0,-60.0,5.0,-3.0,-9.0,-1.0,4.9,-8.7,-3.7,-0.42,-0.42,-0.24,0.77,0.0,0.0,0.0
1752854757057,104.0,-52.0,-79.0,-0.0,3.0,-4.0,7.4,-2.9,-4.9,-0.48,-0.64,-0.01,0.6,0.0,0.0,0.0
1752854757095,99.0,-53.0,-99.0,0.0,4.0,-21.0,7.8,-2.1,-19.2,-0.43,-0.72,-0.03,0.54,0.0,0.0,0.0
1752854757240,85.0,-47.0,-99.0,-10.0,8.0,2.0,-0.5,2.4,1.6,-0.48,-0.75,-0.06,0.46,0.0,0.0,0.0
1752854757289,80.0,-53.0,-79.0,-8.0,0.0,2.0,-1.7,-5.9,0.2,-0.58,-0.64,-0.14,0.48,0.0,0.0,0.0
1752854757335,84.0,-58.0,-78.0,-9.0,-0.0,3.0,0.6,-2.8,1.7,-0.55,-0.64,-0.19,0.5,0.0,0.0,0.0
1752854757376,69.0,-52.0,-68.0,-8.0,11.0,6.0,0.1,5.3,3.2,-0.65,-0.58,-0.21,0.44,0.0,0.0,0.0
1752854757530,66.0,-53.0,-69.0,-9.0,4.0,0.0,1.2,-4.9,-0.9,-0.66,-0.58,-0.23,0.42,0.0,0.0,0.0
1752854757567,62.0,-54.0,-75.0,-7.0,6.0,-1.0,0.0,2.7,-0.0,-0.65,-0.59,-0.27,0.39,0.0,0.0,0.0
1752854757618,56.0,-49.0,-76.0,-7.0,8.0,5.0,1.6,-0.0,0.6,-0.67,-0.6,-0.24,0.36,0.0,0.0,0.0
1752854757744,51.0,-45.0,-83.0,-6.0,5.0,-1.0,0.7,1.5,-0.3,-0.67,-0.64,-0.23,0.32,0.0,0.0,0.0
1752854757787,42.0,-39.0,-98.0,-4.0,10.0,-3.0,1.8,2.3,-2.1,-0.61,-0.72,-0.22,0.24,0.0,0.0,0.0
1752854757837,43.0,-41.0,-95.0,-6.0,6.0,-1.0,1.2,-1.3,-0.9,-0.64,-0.68,-0.25,0.25,0.0,0.0,0.0
1752854757977,40.0,-58.0,-65.0,-7.0,5.0,0.0,1.3,2.1,-2.3,-0.65,-0.65,-0.28,0.26,0.0,0.0,0.0
1752854758020,43.0,-59.0,-66.0,-8.0,5.0,2.0,-0.1,-0.5,0.4,-0.73,-0.48,-0.4,0.28,0.0,0.0,0.0
1752854758054,49.0,-59.0,-66.0,-8.0,2.0,1.0,-0.4,-2.6,-0.2,-0.71,-0.51,-0.37,0.32,0.0,0.0,0.0
1752854758104,54.0,-58.0,-68.0,-9.0,5.0,3.0,-0.6,0.1,0.7,-0.69,-0.53,-0.35,0.35,0.0,0.0,0.0
1752854758138,55.0,-56.0,-70.0,-9.0,6.0,2.0,-0.5,0.4,0.3,-0.69,-0.55,-0.33,0.35,0.0,0.0,0.0
1752854758187,55.0,-55.0,-71.0,-8.0,7.0,1.0,0.3,1.4,-1.0,-0.68,-0.56,-0.31,0.36,0.0,0.0,0.0
1752854758227,56.0,-55.0,-70.0,-8.0,5.0,0.0,0.3,-0.5,-1.5,-0.68,-0.56,-0.3,0.36,0.0,0.0,0.0
1752854758271,58.0,-55.0,-68.0,-9.0,3.0,2.0,-0.8,-2.1,0.2,-0.68,-0.55,-0.29,0.38,0.0,0.0,0.0
1752854758305,59.0,-54.0,-64.0,-9.0,5.0,3.0,-1.0,-0.2,0.4,-0.69,-0.54,-0.28,0.39,0.0,0.0,0.0
1752854758454,60.0,-53.0,-61.0,-7.0,4.0,2.0,0.6,-1.8,-0.7,-0.7,-0.53,-0.27,0.4,0.0,0.0,0.0
1752854758596,60.0,-53.0,-59.0,-8.0,5.0,3.0,-0.4,-0.2,-0.0,-0.7,-0.52,-0.27,0.41,0.0,0.0,0.0
1752854758639,60.0,-53.0,-57.0,-8.0,5.0,4.0,-0.5,-0.3,0.2,-0.7,-0.52,-0.27,0.41,0.0,0.0,0.0
1752854758882,60.0,-53.0,-58.0,-8.0,5.0,4.0,-0.1,0.1,0.4,-0.7,-0.52,-0.26,0.41,0.0,0.0,0.0
1752854758921,60.0,-53.0,-57.0,-8.0,4.0,3.0,0.0,-0.2,0.3,-0.7,-0.51,-0.27,0.41,0.0,0.0,0.0
1752854758960,60.0,-53.0,-57.0,-8.0,4.0,3.0,0.2,-0.4,0.0,-0.7,-0.51,-0.27,0.41,0.0,0.0,0.0
1752854758999,61.0,-54.0,-57.0,-8.0,5.0,3.0,0.3,0.3,-0.0,-0.7,-0.51,-0.27,0.41,0.0,0.0,0.0
1752854759056,61.0,-54.0,-57.0,-8.0,5.0,3.0,0.4,-0.0,-0.3,-0.7,-0.51,-0.27,0.41,0.0,0.0,0.0
1752854759092,60.0,-54.0,-57.0,-8.0,5.0,3.0,0.3,0.2,-0.3,-0.7,-0.51,-0.27,0.41,0.0,0.0,0.0
1752854759144,60.0,-53.0,-57.0,-8.0,5.0,3.0,0.1,0.6,-0.0,-0.71,-0.51,-0.27,0.41,0.0,0.0,0.0
1752854759184,60.0,-53.0,-56.0,-8.0,5.0,4.0,-0.2,0.5,0.6,-0.71,-0.51,-0.27,0.41,0.0,0.0,0.0
1752854759214,59.0,-53.0,-56.0,-8.0,5.0,4.0,-0.1,0.4,0.4,-0.71,-0.51,-0.27,0.4,0.0,0.0,0.0
1752854759357,58.0,-52.0,-55.0,-8.0,5.0,3.0,0.2,-0.3,-0.4,-0.72,-0.5,-0.27,0.4,0.0,0.0,0.0
1752854759392,58.0,-52.0,-55.0,-8.0,5.0,3.0,0.0,-0.4,-0.5,-0.72,-0.5,-0.27,0.4,0.0,0.0,0.0
1752854759434,58.0,-52.0,-55.0,-8.0,5.0,3.0,-0.2,-0.1,-0.4,-0.72,-0.5,-0.27,0.4,0.0,0.0,0.0
1752854759478,57.0,-52.0,-54.0,-8.0,5.0,3.0,-0.2,-0.1,-0.3,-0.72,-0.49,-0.27,0.4,0.0,0.0,0.0
1752854759512,57.0,-52.0,-54.0,-8.0,5.0,3.0,-0.3,0.4,-0.3,-0.73,-0.49,-0.27,0.4,0.0,0.0,0.0
1752854759563,57.0,-52.0,-54.0,-8.0,6.0,3.0,-0.5,0.9,-0.1,-0.73,-0.49,-0.27,0.4,0.0,0.0,0.0
1752854759598,57.0,-52.0,-54.0,-8.0,6.0,4.0,-0.2,1.0,-0.4,-0.73,-0.49,-0.27,0.4,0.0,0.0,0.0
1752854759740,64.0,-56.0,-60.0,-8.0,6.0,3.0,0.0,0.4,-0.9,-0.69,-0.52,-0.28,0.42,0.0,0.0,0.0
1752854759784,70.0,-60.0,-67.0,-8.0,2.0,-1.0,0.4,-2.5,-2.3,-0.63,-0.57,-0.29,0.44,0.0,0.0,0.0
1752854759825,74.0,-62.0,-68.0,-9.0,1.0,2.0,0.8,-2.9,1.5,-0.61,-0.57,-0.29,0.46,0.0,0.0,0.0
1752854759863,73.0,-62.0,-67.0,-8.0,3.0,1.0,0.0,-2.0,-2.6,-0.62,-0.57,-0.3,0.46,0.0,0.0,0.0
1752854759902,64.0,-59.0,-62.0,-8.0,11.0,5.0,0.0,6.6,1.9,-0.65,-0.55,-0.31,0.42,0.0,0.0,0.0
1752854759953,62.0,-57.0,-51.0,-10.0,4.0,5.0,-2.4,-3.6,0.8,-0.7,-0.49,-0.31,0.42,0.0,0.0,0.0
1752854760105,30.0,-48.0,-59.0,29.0,25.0,15.0,36.2,18.7,11.0,-0.78,-0.45,-0.34,0.27,0.0,0.0,0.0
1752854760136,359.0,-36.0,-53.0,39.0,40.0,24.0,44.4,33.0,19.6,-0.86,-0.37,-0.34,-0.01,0.0,0.0,0.0
1752854760174,355.0,-50.0,-64.0,39.0,2.0,39.0,0.0,0.0,0.0,-0.8,-0.33,-0.5,-0.04,0.0,0.0,0.0
1752854760215,66.0,-73.0,48.0,39.0,-39.0,25.0,45.3,-33.4,0.9,-0.65,-0.22,-0.59,0.42,0.0,0.0,0.0
1752854760256,113.0,-48.0,83.0,7.0,-39.0,-18.0,24.0,-32.4,-39.7,-0.41,-0.17,-0.65,0.61,0.0,0.0,0.0
1752854760300,120.0,-50.0,85.0,14.0,-39.0,-19.0,21.4,-32.8,-20.1,-0.35,-0.24,-0.65,0.63,0.0,0.0,0.0
1752854760344,105.0,-58.0,77.0,19.0,-32.0,19.0,28.4,-28.6,17.0,-0.46,-0.24,-0.62,0.59,0.0,0.0,0.0
1752854760375,71.0,-73.0,19.0,33.0,-12.0,26.0,46.4,-8.7,19.3,-0.65,-0.3,-0.52,0.46,0.0,0.0,0.0
1752854760413,34.0,-49.0,-55.0,39.0,40.0,39.0,44.4,32.3,35.3,-0.79,-0.44,-0.34,0.24,0.0,0.0,0.0
1752854760460,356.0,-31.0,-68.0,39.0,40.0,-37.0,44.9,32.1,-39.6,-0.81,-0.48,-0.34,-0.03,0.0,0.0,0.0
1752854760615,129.0,-49.0,57.0,20.0,-39.0,-14.0,29.2,-33.3,-13.6,-0.42,-0.27,-0.48,0.72,0.0,0.0,0.0
1752854760650,116.0,-62.0,44.0,25.0,-32.0,23.0,33.7,-29.9,19.8,-0.39,-0.33,-0.47,0.72,0.0,0.0,0.0
1752854760688,88.0,-68.0,-10.0,39.0,-9.0,29.0,47.4,-13.1,25.4,-0.59,-0.42,-0.37,0.58,0.0,0.0,0.0
1752854760729,44.0,-42.0,-72.0,39.0,40.0,34.0,43.0,31.1,30.8,-0.73,-0.58,-0.23,0.3,0.0,0.0,0.0
1752854760766,359.0,-19.0,-69.0,39.0,40.0,-19.0,42.6,30.9,-41.3,-0.82,-0.54,-0.2,-0.01,0.0,0.0,0.0
1752854760816,344.0,-31.0,-82.0,39.0,37.0,-3.0,44.3,28.7,-3.9,-0.75,-0.51,-0.41,-0.13,0.0,0.0,0.0
1752854760884,23.0,-42.0,-64.0,39.0,12.0,39.0,45.9,6.6,34.9,-0.78,-0.51,-0.35,0.09,0.0,0.0,0.0
1752854760888,56.0,-52.0,-33.0,39.0,-15.0,38.0,47.7,-15.9,33.9,-0.77,-0.38,-0.31,0.41,0.0,0.0,0.0
1752854760937,105.0,-63.0,33.0,39.0,-39.0,-1.0,46.2,-32.7,-20.7,-0.5,-0.34,-0.44,0.66,0.0,0.0,0.0
1752854760967,146.0,-41.0,72.0,27.0,-39.0,-9.0,32.4,-33.5,-6.4,-0.23,-0.27,-0.56,0.75,0.0,0.0,0.0
1752854761004,111.0,-64.0,57.0,24.0,-30.0,39.0,34.8,-21.1,35.9,-0.44,-0.34,-0.51,0.65,0.0,0.0,0.0
1752854761052,58.0,-64.0,-34.0,39.0,-7.0,33.0,47.4,-10.9,29.6,-0.69,-0.36,-0.43,0.46,0.0,0.0,0.0
1752854761094,25.0,-43.0,-69.0,39.0,40.0,25.0,43.8,31.4,22.7,-0.78,-0.51,-0.33,0.17,0.0,0.0,0.0
1752854761136,342.0,-23.0,-72.0,39.0,40.0,-10.0,43.1,30.9,-41.2,-0.79,-0.5,-0.33,-0.12,0.0,0.0,0.0
1752854761177,335.0,-30.0,-83.0,39.0,26.0,33.0,45.1,10.1,36.6,-0.73,-0.49,-0.46,-0.16,0.0,0.0,0.0
1752854761215,30.0,-47.0,-54.0,39.0,-4.0,39.0,47.1,-13.9,34.8,-0.81,-0.43,-0.33,0.21,0.0,0.0,0.0
1752854761248,96.0,-67.0,14.0,29.0,-39.0,38.0,37.5,-36.1,35.2,-0.64,-0.39,-0.38,0.54,0.0,0.0,0.0
1752854761397,40.0,-43.0,-77.0,39.0,31.0,28.0,42.6,30.7,26.0,-0.31,-0.35,-0.49,0.74,0.0,0.0,0.0
1752854761535,357.0,-27.0,-75.0,-5.0,-0.0,13.0,-2.8,-12.6,10.6,-0.78,-0.55,-0.31,-0.05,0.0,0.0,0.0
1752854761575,10.0,-33.0,-71.0,-13.0,-4.0,10.0,-7.0,-11.4,7.8,-0.79,-0.53,-0.3,0.06,0.0,0.0,0.0
1752854761819,6.0,-33.0,-72.0,-7.0,8.0,5.0,-1.0,-0.1,1.8,-0.79,-0.52,-0.3,0.09,0.0,0.0,0.0
1752854762061,9.0,-34.0,-72.0,-6.0,7.0,3.0,-0.4,-0.4,0.2,-0.79,-0.52,-0.31,0.05,0.0,0.0,0.0
1752854762098,7.0,-33.0,-71.0,-6.0,6.0,3.0,-0.5,-0.4,0.4,-0.8,-0.51,-0.31,0.05,0.0,0.0,0.0
1752854762148,7.0,-33.0,-70.0,-6.0,8.0,4.0,-0.5,0.2,0.9,-0.8,-0.51,-0.31,0.05,0.0,0.0,0.0
1752854762182,7.0,-33.0,-70.0,-6.0,7.0,3.0,-0.3,-0.2,0.5,-0.8,-0.51,-0.31,0.05,0.0,0.0,0.0
1752854762332,9.0,-34.0,-69.0,-6.0,7.0,3.0,-0.5,-0.8,0.3,-0.8,-0.51,-0.31,0.05,0.0,0.0,0.0
1752854762365,11.0,-36.0,-68.0,-6.0,6.0,3.0,-0.4,-0.9,0.3,-0.8,-0.5,-0.32,0.07,0.0,0.0,0.0
1752854762406,12.0,-36.0,-68.0,-6.0,7.0,3.0,-0.0,-0.0,0.1,-0.8,-0.5,-0.32,0.08,0.0,0.0,0.0
1752854762449,12.0,-36.0,-68.0,-6.0,8.0,3.0,0.2,0.6,-0.1,-0.8,-0.5,-0.32,0.08,0.0,0.0,0.0
1752854762499,12.0,-36.0,-68.0,-6.0,8.0,3.0,0.0,0.4,0.1,-0.8,-0.5,-0.32,0.08,0.0,0.0,0.0
1752854762533,12.0,-36.0,-68.0,-6.0,7.0,3.0,-0.1,-0.1,-0.1,-0.8,-0.5,-0.32,0.08,0.0,0.0,0.0
1752854762579,12.0,-36.0,-68.0,-6.0,7.0,3.0,-0.3,-1.1,0.3,-0.8,-0.5,-0.32,0.09,0.0,0.0,0.0
1752854762616,13.0,-37.0,-68.0,-6.0,6.0,3.0,-0.3,-0.8,0.3,-0.8,-0.5,-0.32,0.09,0.0,0.0,0.0
1752854762666,13.0,-37.0,-67.0,-6.0,6.0,3.0,-0.2,-1.0,-0.1,-0.8,-0.49,-0.32,0.09,0.0,0.0,0.0
1752854762833,13.0,-37.0,-65.0,-6.0,7.0,3.0,-0.1,-0.5,0.0,-0.81,-0.48,-0.32,0.09,0.0,0.0,0.0
1752854762849,13.0,-37.0,-65.0,-6.0,7.0,3.0,-0.0,0.2,-0.0,-0.81,-0.48,-0.32,0.09,0.0,0.0,0.0
1752854762884,12.0,-37.0,-65.0,-6.0,7.0,4.0,-0.1,-0.1,0.1,-0.81,-0.48,-0.32,0.09,0.0,0.0,0.0
1752854762920,12.0,-37.0,-64.0,-6.0,7.0,3.0,-0.1,-0.2,0.0,-0.82,-0.47,-0.32,0.09,0.0,0.0,0.0
1752854762964,12.0,-37.0,-64.0,-7.0,6.0,4.0,-0.0,-0.1,0.0,-0.82,-0.47,-0.32,0.09,0.0,0.0,0.0
1752854763014,11.0,-37.0,-63.0,-6.0,6.0,3.0,-0.2,-0.5,-0.2,-0.82,-0.47,-0.32,0.08,0.0,0.0,0.0
1752854763060,10.0,-37.0,-62.0,-6.0,7.0,4.0,-0.3,-0.4,0.4,-0.82,-0.46,-0.33,0.07,0.0,0.0,0.0
1752854763098,9.0,-37.0,-62.0,-6.0,7.0,4.0,0.1,0.2,0.1,-0.83,-0.45,-0.33,0.07,0.0,0.0,0.0
1752854763148,9.0,-37.0,-62.0,-6.0,8.0,4.0,-0.4,-0.0,1.3,-0.83,-0.45,-0.33,0.06,0.0,0.0,0.0
1752854763172,9.0,-36.0,-62.0,-6.0,8.0,4.0,-0.3,0.8,-0.1,-0.83,-0.46,-0.32,0.07,0.0,0.0,0.0
1752854763214,10.0,-37.0,-63.0,-7.0,5.0,4.0,-0.8,-1.9,0.7,-0.82,-0.46,-0.33,0.07,0.0,0.0,0.0
1752854763264,11.0,-38.0,-63.0,-7.0,6.0,4.0,-1.3,-0.8,0.2,-0.82,-0.46,-0.33,0.08,0.0,0.0,0.0
1752854763298,11.0,-39.0,-64.0,-8.0,6.0,6.0,-1.7,-0.9,2.2,-0.82,-0.46,-0.34,0.08,0.0,0.0,0.0
1752854763339,9.0,-41.0,-65.0,-6.0,6.0,1.0,-1.2,-2.3,-1.3,-0.81,-0.45,-0.37,0.06,0.0,0.0,0.0
1752854763378,11.0,-41.0,-71.0,-6.0,-3.0,5.0,-2.6,-2.1,3.5,-0.79,-0.49,-0.37,0.07,0.0,0.0,0.0
1752854763415,5.0,-37.0,-70.0,-13.0,6.0,11.0,-6.5,-1.5,7.9,-0.8,-0.49,-0.36,0.04,0.0,0.0,0.0
1752854763465,6.0,-41.0,-71.0,-12.0,0.0,12.0,-5.6,-6.8,9.7,-0.8,-0.47,-0.38,0.04,0.0,0.0,0.0
1752854763515,8.0,-45.0,-81.0,6.0,-13.0,2.0,31.4,-8.2,3.9,-0.74,-0.5,-0.44,0.05,0.0,0.0,0.0
1752854763749,180.0,-21.0,76.0,37.0,-39.0,-1.0,39.1,-30.3,7.0,-0.03,-0.26,-0.57,0.78,0.0,0.0,0.0
1752854763780,157.0,-35.0,70.0,32.0,-39.0,26.0,38.3,-32.0,22.7,-0.1,-0.24,-0.56,0.79,0.0,0.0,0.0
1752854763817,120.0,-56.0,46.0,39.0,-21.0,39.0,47.6,-18.6,35.2,-0.35,-0.29,-0.48,0.75,0.0,0.0,0.0
1752854763864,80.0,-66.0,-54.0,39.0,12.0,21.0,47.2,6.5,20.0,-0.57,-0.46,-0.35,0.58,0.0,0.0,0.0
1752854764003,319.0,7.0,-119.0,39.0,38.0,-34.0,32.8,27.0,-17.5,-0.65,-0.71,-0.21,0.19,0.0,0.0,0.0
1752854764052,334.0,-4.0,-95.0,27.0,33.0,3.0,30.8,23.5,1.9,-0.66,-0.7,-0.22,-0.15,0.0,0.0,0.0
1752854764086,5.0,-40.0,-63.0,39.0,8.0,39.0,47.9,-8.2,36.1,-0.82,-0.43,-0.38,0.03,0.0,0.0,0.0
1752854764127,42.0,-76.0,112.0,39.0,-35.0,28.0,44.8,-0.1,19.1,-0.63,-0.1,-0.73,0.24,0.0,0.0,0.0
1752854764269,355.0,1.0,177.0,39.0,-19.0,5.0,48.2,-9.8,16.5,0.01,0.05,-1.0,0.03,0.0,0.0,0.0
1752854764320,352.0,-5.0,-69.0,39.0,40.0,35.0,36.1,31.1,31.3,-0.79,-0.54,-0.28,0.01,0.0,0.0,0.0
1752854764456,352.0,42.0,-68.0,39.0,24.0,39.0,48.2,23.6,35.9,-0.8,-0.46,0.38,-0.06,0.0,0.0,0.0
1752854764490,20.0,-69.0,-170.0,39.0,40.0,-29.0,44.2,37.9,-31.2,-0.56,-0.2,-0.8,0.1,0.0,0.0,0.0
1752854764539,30.0,-10.0,-174.0,39.0,-23.0,-39.0,42.9,-36.5,-29.6,-0.1,-0.25,-0.96,-0.03,0.0,0.0,0.0
1752854764573,74.0,-57.0,124.0,39.0,-3.0,38.0,48.3,17.0,12.5,-0.47,-0.13,-0.8,0.36,0.0,0.0,0.0
1752854764619,10.0,-14.0,-52.0,39.0,40.0,39.0,37.8,32.7,32.1,-0.8,-0.5,-0.29,0.15,0.0,0.0,0.0
1752854764656,21.0,37.0,-46.0,39.0,-2.0,39.0,37.0,-29.0,17.1,-0.89,-0.27,0.36,0.1,0.0,0.0,0.0
1752854764703,54.0,-22.0,-59.0,16.0,26.0,-12.0,21.2,20.0,-17.4,-0.77,-0.51,0.01,0.39,0.0,0.0,0.0
1752854764746,73.0,-38.0,-12.0,34.0,-18.0,39.0,47.2,-5.6,34.7,-0.75,-0.26,-0.21,0.56,0.0,0.0,0.0
1752854764799,100.0,-49.0,125.0,39.0,39.0,-39.0,41.5,-10.4,-31.1,-0.36,-0.21,-0.8,0.43,0.0,0.0,0.0
1752854764827,26.0,-6.0,147.0,39.0,-18.0,-25.0,41.6,-12.4,-17.5,0.05,-0.2,-0.94,0.26,0.0,0.0,0.0
1752854764859,97.0,-46.0,109.0,39.0,-28.0,12.0,47.2,-23.0,11.3,-0.29,-0.1,-0.85,0.43,0.0,0.0,0.0
1752854764900,55.0,-63.0,-7.0,39.0,40.0,4.0,43.3,34.1,-2.4,-0.75,-0.27,-0.45,0.39,0.0,0.0,0.0
1752854765147,77.0,-5.0,-32.0,-15.0,-20.0,39.0,43.8,-31.2,-2.6,-0.94,-0.3,0.16,0.03,0.0,0.0,0.0
1752854765181,83.0,-48.0,99.0,39.0,-16.0,22.0,47.0,-10.9,19.4,-0.37,-0.02,-0.84,0.41,0.0,0.0,0.0
1752854765222,26.0,-42.0,-36.0,39.0,39.0,39.0,42.3,34.0,31.6,-0.82,-0.25,-0.39,0.33,0.0,0.0,0.0
1752854765264,357.0,29.0,-26.0,39.0,16.0,28.0,34.3,11.2,20.4,-0.96,-0.22,0.18,-0.05,0.0,0.0,0.0
1752854765314,36.0,-2.0,-48.0,21.0,-20.0,-36.0,14.3,5.3,-22.3,-0.9,-0.33,0.17,0.22,0.0,0.0,0.0
1752854765355,53.0,2.0,-19.0,39.0,22.0,39.0,42.9,22.7,30.1,-0.88,-0.14,0.09,0.44,0.0,0.0,0.0
1752854765495,109.0,-8.0,76.0,38.0,-39.0,27.0,28.0,-31.0,18.6,-0.46,0.28,-0.55,0.64,0.0,0.0,0.0
1752854765529,60.0,-23.0,20.0,39.0,16.0,-39.0,41.2,39.2,-38.1,-0.83,0.04,-0.25,0.49,0.0,0.0,0.0
1752854765672,351.0,25.0,3.0,4.0,13.0,31.0,5.5,16.5,29.6,-0.97,0.01,0.22,-0.08,0.0,0.0,0.0
1752854765715,71.0,-12.0,41.0,39.0,18.0,17.0,42.1,25.8,11.5,-0.85,0.21,-0.13,0.47,0.0,0.0,0.0
1752854765765,124.0,-18.0,85.0,39.0,-9.0,-39.0,38.8,0.5,-37.2,-0.34,0.12,-0.67,0.65,0.0,0.0,0.0
1752854765811,172.0,5.0,92.0,36.0,-7.0,-3.0,37.4,2.6,-3.1,-0.05,0.11,-0.71,0.69,0.0,0.0,0.0
1752854765848,105.0,-19.0,80.0,39.0,-18.0,-25.0,43.6,-12.0,-27.3,-0.46,0.2,-0.61,0.61,0.0,0.0,0.0
1752854765879,48.0,-31.0,25.0,39.0,5.0,-6.0,41.7,20.8,-12.7,-0.86,0.06,-0.33,0.39,0.0,0.0,0.0
1752854765919,338.0,11.0,1.0,39.0,40.0,39.0,34.8,42.5,30.7,-0.98,-0.01,0.09,-0.19,0.0,0.0,0.0
1752854766065,352.0,10.0,7.0,39.0,-5.0,-25.0,41.7,4.5,-27.3,-0.97,0.09,0.17,-0.18,0.0,0.0,0.0
1752854766107,155.0,-13.0,106.0,39.0,-37.0,-39.0,39.3,-27.8,-37.3,-0.13,-0.01,-0.79,0.59,0.0,0.0,0.0
1752854766148,134.0,-17.0,92.0,22.0,20.0,-0.0,25.1,29.4,-0.6,-0.16,0.05,-0.74,0.66,0.0,0.0,0.0
1752854766291,347.0,23.0,5.0,25.0,40.0,39.0,15.2,41.1,27.8,-0.51,0.18,-0.57,0.62,0.0,0.0,0.0
1752854766324,350.0,30.0,9.0,23.0,15.0,17.0,19.3,3.4,-4.2,-0.96,0.05,0.26,-0.08,0.0,0.0,0.0
1752854766374,28.0,3.0,22.0,18.0,21.0,35.0,18.7,26.1,27.3,-0.97,0.13,0.05,0.18,0.0,0.0,0.0
1752854766409,60.0,-12.0,55.0,27.0,8.0,-13.0,28.0,24.4,-8.0,-0.77,0.34,-0.32,0.44,0.0,0.0,0.0
1752854766458,102.0,-17.0,103.0,19.0,25.0,-36.0,23.0,26.6,-37.1,-0.45,0.31,-0.68,0.49,0.0,0.0,0.0
1752854766694,59.0,-10.0,44.0,-8.0,2.0,3.0,-6.9,7.1,-3.6,-0.8,0.28,-0.27,0.45,0.0,0.0,0.0
1752854766745,60.0,-8.0,43.0,-9.0,1.0,6.0,-8.5,5.7,0.3,-0.8,0.28,-0.25,0.46,0.0,0.0,0.0
1752854766873,58.0,-5.0,44.0,-7.0,1.0,6.0,-6.5,7.4,-1.3,-0.8,0.29,-0.23,0.47,0.0,0.0,0.0
1752854767015,50.0,-5.0,43.0,-6.0,3.0,7.0,-5.5,9.8,-0.1,-0.84,0.31,-0.2,0.39,0.0,0.0,0.0
1752854767057,49.0,-4.0,42.0,-6.0,5.0,7.0,-5.3,11.2,0.0,-0.85,0.31,-0.18,0.39,0.0,0.0,0.0
1752854767097,48.0,-4.0,41.0,-6.0,5.0,7.0,-5.2,10.1,-1.0,-0.86,0.3,-0.18,0.38,0.0,0.0,0.0
1752854767137,48.0,-4.0,40.0,-6.0,3.0,7.0,-5.7,9.3,-1.0,-0.86,0.3,-0.17,0.38,0.0,0.0,0.0
1752854767178,48.0,-3.0,40.0,-7.0,2.0,7.0,-6.2,8.8,-0.2,-0.86,0.3,-0.16,0.38,0.0,0.0,0.0
1752854767221,48.0,-1.0,39.0,-7.0,3.0,9.0,-6.4,9.8,0.9,-0.86,0.3,-0.15,0.38,0.0,0.0,0.0
1752854767474,49.0,-2.0,38.0,-6.0,3.0,7.0,-5.4,9.0,-0.5,-0.86,0.29,-0.15,0.39,0.0,0.0,0.0
1752854767518,47.0,-3.0,38.0,-6.0,4.0,8.0,-5.3,10.3,-0.1,-0.87,0.29,-0.15,0.38,0.0,0.0,0.0
1752854767552,46.0,-3.0,38.0,-6.0,3.0,7.0,-5.5,9.0,-0.3,-0.87,0.29,-0.15,0.37,0.0,0.0,0.0
1752854767598,46.0,-3.0,38.0,-6.0,4.0,7.0,-5.5,8.6,-0.8,-0.87,0.29,-0.15,0.37,0.0,0.0,0.0
1752854767642,46.0,-2.0,38.0,-6.0,4.0,7.0,-5.5,9.5,-1.1,-0.87,0.29,-0.15,0.37,0.0,0.0,0.0
1752854767690,47.0,-2.0,38.0,-6.0,2.0,7.0,-5.8,8.3,-0.8,-0.87,0.29,-0.15,0.37,0.0,0.0,0.0
1752854767722,46.0,-2.0,38.0,-6.0,3.0,7.0,-5.8,9.1,-0.4,-0.87,0.29,-0.15,0.37,0.0,0.0,0.0
1752854767867,45.0,-3.0,39.0,-6.0,3.0,7.0,-5.5,9.7,-0.5,-0.87,0.3,-0.15,0.36,0.0,0.0,0.0
1752854767919,45.0,-3.0,39.0,-6.0,2.0,7.0,-5.5,8.3,-0.9,-0.87,0.29,-0.15,0.36,0.0,0.0,0.0
1752854767951,45.0,-3.0,38.0,-6.0,4.0,7.0,-5.3,9.6,-1.2,-0.87,0.29,-0.15,0.36,0.0,0.0,0.0
1752854767989,45.0,-3.0,38.0,-6.0,3.0,8.0,-5.6,9.1,-0.3,-0.87,0.29,-0.15,0.36,0.0,0.0,0.0
1752854768028,45.0,-3.0,38.0,-6.0,3.0,7.0,-4.8,8.1,-0.8,-0.87,0.29,-0.15,0.36,0.0,0.0,0.0
1752854768077,41.0,-14.0,25.0,-6.0,2.0,7.0,-3.4,6.3,-1.7,-0.91,0.15,-0.19,0.34,0.0,0.0,0.0
1752854768110,41.0,-14.0,24.0,-6.0,4.0,7.0,-3.1,7.6,-2.1,-0.91,0.15,-0.19,0.34,0.0,0.0,0.0
1752854768160,40.0,-14.0,24.0,-6.0,4.0,7.0,-3.1,7.7,-1.8,-0.91,0.15,-0.19,0.34,0.0,0.0,0.0
1752854768192,40.0,-14.0,24.0,-6.0,3.0,7.0,-2.3,6.1,-2.1,-0.91,0.15,-0.19,0.34,0.0,0.0,0.0
1752854768227,38.0,-20.0,16.0,-6.0,3.0,7.0,-2.5,5.7,-1.8,-0.92,0.07,-0.2,0.32,0.0,0.0,0.0
1752854768277,39.0,-19.0,16.0,-6.0,3.0,7.0,-2.6,5.6,-2.1,-0.92,0.07,-0.2,0.32,0.0,0.0,0.0
1752854768311,39.0,-19.0,16.0,-6.0,3.0,7.0,-2.7,5.6,-1.7,-0.92,0.07,-0.2,0.33,0.0,0.0,0.0
1752854768357,39.0,-18.0,16.0,-6.0,3.0,8.0,-2.8,5.9,-1.5,-0.92,0.07,-0.2,0.33,0.0,0.0,0.0
1752854768595,38.0,-25.0,7.0,-6.0,2.0,7.0,-1.7,2.6,-2.3,-0.92,0.07,-0.19,0.33,0.0,0.0,0.0
1752854768644,37.0,-25.0,7.0,-6.0,3.0,7.0,-1.6,3.6,-2.2,-0.92,-0.01,-0.22,0.31,0.0,0.0,0.0
1752854768676,36.0,-25.0,7.0,-6.0,2.0,7.0,-1.8,2.7,-1.5,-0.93,-0.01,-0.23,0.3,0.0,0.0,0.0
1752854768811,35.0,-25.0,7.0,-4.0,6.0,7.0,-0.1,5.3,-2.0,-0.93,-0.01,-0.22,0.29,0.0,0.0,0.0
1752854768859,29.0,-23.0,-4.0,-5.0,6.0,6.0,-0.7,5.6,-3.3,-0.95,-0.08,-0.18,0.24,0.0,0.0,0.0
1752854768892,27.0,-22.0,-6.0,-4.0,5.0,8.0,-1.3,4.5,-1.5,-0.95,-0.09,-0.17,0.23,0.0,0.0,0.0
1752854768928,27.0,-22.0,-7.0,-4.0,6.0,6.0,-0.8,5.1,-2.8,-0.95,-0.1,-0.17,0.23,0.0,0.0,0.0
1752854768976,27.0,-22.0,-8.0,-5.0,5.0,7.0,-1.0,3.3,-2.4,-0.95,-0.11,-0.17,0.23,0.0,0.0,0.0
1752854769012,28.0,-22.0,-8.0,-5.0,6.0,7.0,-1.0,4.1,-2.4,-0.95,-0.11,-0.17,0.24,0.0,0.0,0.0
1752854769053,29.0,-22.0,-9.0,-5.0,5.0,7.0,-1.2,3.4,-2.0,-0.95,-0.12,-0.17,0.25,0.0,0.0,0.0
1752854769096,30.0,-22.0,-9.0,-5.0,5.0,6.0,-1.0,3.5,-2.8,-0.94,-0.12,-0.17,0.26,0.0,0.0,0.0
1752854769129,31.0,-22.0,-9.0,-5.0,5.0,6.0,-1.0,3.6,-2.7,-0.94,-0.13,-0.17,0.26,0.0,0.0,0.0
1752854769270,31.0,-26.0,-18.0,-5.0,5.0,7.0,-0.8,1.9,-1.4,-0.93,-0.2,-0.18,0.25,0.0,0.0,0.0
1752854769312,31.0,-27.0,-21.0,-9.0,2.0,12.0,-4.8,-1.7,4.0,-0.92,-0.23,-0.18,0.25,0.0,0.0,0.0
1752854769351,31.0,-25.0,-22.0,-12.0,-1.0,22.0,-8.8,-3.3,15.0,-0.92,-0.23,-0.17,0.26,0.0,0.0,0.0
1752854769388,26.0,-26.0,-27.0,-1.0,22.0,28.0,6.8,27.6,24.8,-0.93,-0.26,-0.18,0.21,0.0,0.0,0.0
1752854769430,2.0,-43.0,-29.0,18.0,26.0,20.0,25.5,22.9,15.1,-0.93,-0.21,-0.31,0.04,0.0,0.0,0.0
1752854769472,6.0,-72.0,-64.0,15.0,15.0,13.0,24.8,12.2,12.5,-0.79,-0.22,-0.57,0.03,0.0,0.0,0.0
1752854769522,9.0,-75.0,-140.0,35.0,24.0,-8.0,46.7,28.0,-15.6,-0.63,-0.19,-0.75,0.05,0.0,0.0,0.0
1752854769565,10.0,-42.0,168.0,39.0,26.0,11.0,44.9,29.8,17.4,-0.35,-0.08,-0.93,0.11,0.0,0.0,0.0
1752854769618,107.0,-20.0,120.0,39.0,-27.0,0.0,38.9,-25.1,3.7,-0.34,0.13,-0.87,0.34,0.0,0.0,0.0
1752854769642,146.0,16.0,95.0,9.0,-39.0,25.0,5.2,-29.8,24.8,-0.2,0.36,-0.69,0.6,0.0,0.0,0.0
1752854769681,138.0,27.0,67.0,14.0,-33.0,23.0,10.1,-25.8,17.7,-0.25,0.48,-0.41,0.73,0.0,0.0,0.0
1752854769728,122.0,3.0,23.0,7.0,-22.0,-5.0,6.8,-19.7,-14.4,-0.43,0.19,-0.22,0.85,0.0,0.0,0.0
1752854769872,107.0,1.0,-20.0,3.0,-30.0,5.0,17.2,5.8,3.6,-0.56,-0.05,0.08,0.82,0.0,0.0,0.0
1752854769923,12.0,12.0,-40.0,9.0,13.0,25.0,8.3,7.2,17.5,-0.93,-0.32,0.14,0.1,0.0,0.0,0.0
1752854769958,7.0,-5.0,-41.0,18.0,4.0,25.0,26.6,1.6,12.3,-0.94,-0.35,-0.03,0.06,0.0,0.0,0.0
1752854769993,356.0,-33.0,-53.0,25.0,6.0,11.0,29.9,-2.2,7.6,-0.87,-0.37,-0.33,-0.03,0.0,0.0,0.0
1752854770131,345.0,-50.0,-90.0,1.0,-2.0,-23.0,0.6,-4.8,-12.3,-0.7,-0.37,-0.6,-0.09,0.0,0.0,0.0
1752854770275,42.0,-12.0,-158.0,-3.0,8.0,-2.0,0.3,-2.7,3.9,-0.16,-0.35,-0.91,-0.13,0.0,0.0,0.0
1752854770417,250.0,-24.0,-98.0,-1.0,10.0,6.0,0.0,2.0,0.9,-0.38,-0.14,-0.74,-0.54,0.0,0.0,0.0
1752854770467,225.0,-6.0,-58.0,-1.0,7.0,5.0,-0.1,-1.8,-0.2,-0.33,-0.13,-0.47,-0.81,0.0,0.0,0.0
1752854770497,225.0,-6.0,-55.0,-1.0,10.0,7.0,-0.2,2.5,1.6,-0.34,-0.12,-0.45,-0.82,0.0,0.0,0.0
1752854770534,227.0,-8.0,-53.0,1.0,18.0,8.0,3.3,10.4,2.4,-0.36,-0.1,-0.44,-0.82,0.0,0.0,0.0
1752854770681,241.0,-22.0,-53.0,21.0,23.0,39.0,18.7,16.9,32.0,-0.42,-0.05,-0.46,-0.78,0.0,0.0,0.0
1752854770717,39.0,26.0,-55.0,1.0,8.0,20.0,-3.2,0.1,15.6,-0.85,-0.31,0.34,0.27,0.0,0.0,0.0
1752854770760,54.0,18.0,-59.0,-2.0,0.0,-2.0,-3.2,-3.8,-14.0,-0.77,-0.34,0.37,0.39,0.0,0.0,0.0
1752854770799,67.0,7.0,-53.0,-4.0,8.0,8.0,1.7,-0.6,2.9,-0.75,-0.33,0.3,0.49,0.0,0.0,0.0
1752854770835,88.0,2.0,-47.0,-7.0,-3.0,22.0,-3.9,-10.1,9.8,-0.66,-0.27,0.29,0.64,0.0,0.0,0.0
1752854770876,92.0,-2.0,-44.0,-0.0,10.0,-0.0,0.2,3.4,-7.4,-0.64,-0.28,0.27,0.66,0.0,0.0,0.0
1752854770924,93.0,-4.0,-40.0,-3.0,5.0,7.0,-2.3,-0.3,-0.9,-0.65,-0.26,0.22,0.68,0.0,0.0,0.0
1752854770967,94.0,-4.0,-41.0,-1.0,9.0,4.0,-0.3,2.2,-3.1,-0.64,-0.27,0.23,0.69,0.0,0.0,0.0
1752854771005,95.0,-6.0,-42.0,-1.0,8.0,4.0,-0.4,2.4,-3.7,-0.63,-0.28,0.22,0.69,0.0,0.0,0.0
1752854771043,98.0,-10.0,-37.0,-5.0,4.0,6.0,-3.1,-1.9,-1.7,-0.62,-0.27,0.18,0.71,0.0,0.0,0.0
1752854771097,101.0,-14.0,-30.0,-5.0,2.0,4.0,-1.5,-2.6,-4.2,-0.61,-0.26,0.11,0.74,0.0,0.0,0.0
1752854771136,101.0,-19.0,-14.0,-4.0,-1.0,7.0,-0.7,-2.3,-1.9,-0.62,-0.22,0.01,0.75,0.0,0.0,0.0
1752854771274,101.0,-20.0,-3.0,-6.0,-7.0,12.0,-2.8,0.6,6.1,-0.63,-0.15,-0.09,0.76,0.0,0.0,0.0
1752854771318,97.0,-29.0,65.0,-6.0,-6.0,13.0,0.8,-3.8,3.3,-0.56,0.1,-0.53,0.63,0.0,0.0,0.0
1752854771360,102.0,-36.0,88.0,-5.0,-7.0,2.0,-1.8,1.3,5.0,-0.45,0.04,-0.7,0.56,0.0,0.0,0.0
1752854771394,113.0,-42.0,105.0,3.0,-5.0,11.0,13.5,0.9,7.1,-0.35,-0.12,-0.76,0.53,0.0,0.0,0.0
1752854771434,166.0,-32.0,112.0,12.0,-19.0,-22.0,12.5,-13.7,-23.1,-0.07,-0.37,-0.72,0.58,0.0,0.0,0.0
1752854771585,127.0,-41.0,155.0,-6.0,-2.0,-10.0,0.3,0.0,-2.9,-0.16,-0.54,-0.73,0.38,0.0,0.0,0.0
1752854771627,81.0,-38.0,176.0,-2.0,-4.0,-10.0,5.0,-1.4,-0.4,-0.21,-0.6,-0.73,0.26,0.0,0.0,0.0
1752854771768,94.0,-38.0,-158.0,8.0,8.0,11.0,10.0,-2.1,10.8,-0.34,-0.68,-0.63,0.13,0.0,0.0,0.0
1752854771811,15.0,-6.0,-78.0,2.0,10.0,10.0,2.6,2.4,5.4,-0.77,-0.63,0.02,0.1,0.0,0.0,0.0
1752854771845,19.0,-5.0,-58.0,0.0,10.0,6.0,1.9,2.3,-1.3,-0.86,-0.49,0.03,0.14,0.0,0.0,0.0
1752854771894,20.0,-12.0,-41.0,3.0,13.0,4.0,2.9,7.2,-4.1,-0.92,-0.36,-0.04,0.16,0.0,0.0,0.0
1752854771944,30.0,-23.0,-32.0,0.0,2.0,9.0,0.9,-5.8,-0.7,-0.91,-0.31,-0.11,0.23,0.0,0.0,0.0
1752854771991,24.0,-31.0,-31.0,-2.0,13.0,7.0,3.2,8.6,-0.3,-0.91,-0.3,-0.2,0.21,0.0,0.0,0.0
1752854772026,16.0,-38.0,-34.0,2.0,18.0,4.0,9.2,13.7,-1.5,-0.9,-0.29,-0.3,0.13,0.0,0.0,0.0
1752854772061,12.0,-59.0,-37.0,6.0,13.0,-2.0,15.3,6.4,-5.1,-0.84,-0.23,-0.49,0.09,0.0,0.0,0.0
1752854772102,25.0,-84.0,6.0,2.0,-9.0,-9.0,9.3,-11.7,-9.1,-0.69,-0.08,-0.7,0.15,0.0,0.0,0.0
1752854772145,56.0,-46.0,126.0,-12.0,-31.0,-12.0,-8.8,-24.0,-5.0,-0.48,0.15,-0.83,0.26,0.0,0.0,0.0
1752854772186,70.0,-33.0,131.0,-13.0,-13.0,-5.0,-7.4,-6.8,0.5,-0.39,0.23,-0.85,0.27,0.0,0.0,0.0
1752854772227,77.0,-37.0,126.0,-6.0,-8.0,-9.0,1.1,-2.4,-5.3,-0.41,0.13,-0.85,0.32,0.0,0.0,0.0
1752854772269,68.0,-53.0,126.0,-5.0,-5.0,-5.0,3.6,-0.3,-1.9,-0.46,-0.01,-0.83,0.33,0.0,0.0,0.0
1752854772311,56.0,-68.0,135.0,-2.0,-1.0,-7.0,9.1,0.4,-5.7,-0.54,-0.16,-0.78,0.28,0.0,0.0,0.0
1752854772346,47.0,-83.0,-165.0,2.0,7.0,-6.0,10.3,7.4,-4.4,-0.61,-0.32,-0.68,0.26,0.0,0.0,0.0
1752854772387,37.0,-73.0,-72.0,-7.0,13.0,4.0,2.1,7.9,3.9,-0.7,-0.39,-0.55,0.23,0.0,0.0,0.0
1752854772430,38.0,-66.0,-47.0,-10.0,7.0,8.0,-1.5,3.7,4.6,-0.75,-0.37,-0.49,0.25,0.0,0.0,0.0
1752854772580,38.0,-65.0,-41.0,-5.0,6.0,5.0,2.5,1.6,0.4,-0.77,-0.34,-0.47,0.27,0.0,0.0,0.0
1752854772614,41.0,-49.0,-45.0,-6.0,7.0,3.0,1.7,1.1,-3.8,-0.8,-0.41,-0.32,0.3,0.0,0.0,0.0
1752854772647,45.0,-48.0,-46.0,-1.0,6.0,-3.0,6.6,4.2,-7.4,-0.79,-0.43,-0.29,0.33,0.0,0.0,0.0
1752854772693,54.0,-47.0,-34.0,-8.0,9.0,7.0,-0.5,6.1,1.0,-0.79,-0.4,-0.28,0.38,0.0,0.0,0.0
1752854772752,64.0,-46.0,-9.0,-17.0,-3.0,24.0,-7.3,0.1,16.9,-0.79,-0.28,-0.29,0.46,0.0,0.0,0.0
1752854772880,68.0,-58.0,15.0,-1.0,6.0,1.0,7.4,4.6,5.1,-0.74,-0.22,-0.4,0.5,0.0,0.0,0.0
1752854772923,3.0,-54.0,-158.0,-5.0,6.0,-4.0,2.0,3.4,1.8,-0.48,-0.25,-0.84,0.01,0.0,0.0,0.0
1752854773064,31.0,-37.0,-161.0,-5.0,-0.0,-8.0,1.0,-2.9,-0.2,-0.39,-0.29,-0.88,-0.05,0.0,0.0,0.0
1752854773099,348.0,-41.0,-160.0,-3.0,3.0,-12.0,12.2,5.0,-13.6,-0.38,-0.24,-0.89,-0.04,0.0,0.0,0.0
1752854773139,352.0,-58.0,-143.0,5.0,0.0,5.0,11.3,-7.4,13.1,-0.54,-0.25,-0.81,-0.04,0.0,0.0,0.0
1752854773297,5.0,-56.0,-32.0,-8.0,3.0,5.0,-0.1,-0.2,0.8,-0.86,-0.2,-0.47,0.04,0.0,0.0,0.0
1752854773328,4.0,-57.0,-31.0,-8.0,3.0,7.0,0.2,-0.3,2.3,-0.86,-0.18,-0.48,0.03,0.0,0.0,0.0
1752854773363,1.0,-57.0,-32.0,-8.0,4.0,7.0,0.3,1.0,4.1,-0.85,-0.17,-0.49,0.01,0.0,0.0,0.0
1752854773400,358.0,-63.0,-38.0,-9.0,5.0,10.0,2.5,0.7,5.7,-0.82,-0.16,-0.54,-0.01,0.0,0.0,0.0
1752854773440,357.0,-77.0,-75.0,-4.0,1.0,1.0,7.2,-0.4,0.8,-0.73,-0.13,-0.67,-0.02,0.0,0.0,0.0
1752854773491,357.0,-63.0,-164.0,-11.0,8.0,-16.0,-4.6,4.3,-5.8,-0.57,-0.08,-0.82,-0.03,0.0,0.0,0.0
1752854773531,360.0,-66.0,-158.0,-29.0,-9.0,-8.0,2.3,-9.5,12.8,-0.54,-0.13,-0.83,-0.01,0.0,0.0,0.0
1752854773786,330.0,-45.0,-109.0,-5.0,6.0,-3.0,1.5,-0.3,-1.3,-0.6,-0.38,-0.69,-0.16,0.0,0.0,0.0
1752854773814,329.0,-44.0,-104.0,-6.0,12.0,2.0,2.5,3.4,2.0,-0.62,-0.37,-0.67,-0.17,0.0,0.0,0.0
1752854773858,333.0,-46.0,-103.0,-8.0,7.0,1.0,-2.1,-0.1,3.2,-0.63,-0.38,-0.66,-0.15,0.0,0.0,0.0
1752854773905,339.0,-46.0,-105.0,-9.0,6.0,-0.0,-1.6,-0.1,1.5,-0.63,-0.4,-0.65,-0.12,0.0,0.0,0.0
1752854773944,345.0,-47.0,-111.0,-6.0,4.0,2.0,1.3,-2.2,4.1,-0.61,-0.43,-0.65,-0.09,0.0,0.0,0.0
1752854773978,343.0,-50.0,-109.0,-6.0,12.0,0.0,0.9,5.6,1.8,-0.62,-0.39,-0.67,-0.09,0.0,0.0,0.0
1752854774020,342.0,-48.0,-104.0,-5.0,9.0,2.0,3.7,2.1,2.3,-0.64,-0.4,-0.65,-0.1,0.0,0.0,0.0
1752854774064,343.0,-49.0,-104.0,-7.0,7.0,-1.0,-0.9,1.3,0.9,-0.64,-0.4,-0.65,-0.09,0.0,0.0,0.0
1752854774099,346.0,-51.0,-105.0,-8.0,10.0,-6.0,4.6,2.5,-0.8,-0.64,-0.39,-0.65,-0.08,0.0,0.0,0.0
1752854774342,47.0,-69.0,-27.0,2.0,-4.0,6.0,12.9,1.1,7.2,-0.72,-0.33,-0.51,0.33,0.0,0.0,0.0
1752854774482,22.0,-56.0,-30.0,3.0,20.0,-7.0,11.6,17.0,-9.9,-0.85,-0.25,-0.44,0.16,0.0,0.0,0.0
1752854774632,18.0,-68.0,-88.0,-9.0,4.0,6.0,-2.5,3.3,2.9,-0.74,-0.29,-0.6,0.07,0.0,0.0,0.0
