timestamp,heading,roll,pitch,acc_x,acc_y,acc_z,quat_w,quat_x,quat_y,quat_z,mag_x,mag_y,mag_z
1752698461853,0.0,0.0,0.0,0.0,0.0,9.81,1.0,0.0,0.0,0.0,0.0,0.0,0.0
1752698461971,1.06,-2.63,-2.19,0.0,0.0,9.81,1.0,0.0,0.0,0.0,0.0,0.0,0.0
1752698462094,1.06,-4.19,-6.69,0.0,0.0,9.81,1.0,0.0,0.0,0.0,0.0,0.0,0.0
1752698462215,1.31,-4.5,-9.63,0.0,0.0,9.81,1.0,0.0,0.0,0.0,0.0,0.0,0.0
1752698462346,2.75,-5.94,-11.75,0.0,0.0,9.81,1.0,0.0,0.0,0.0,0.0,0.0,0.0
1752698462475,1.19,-8.38,-15.5,0.0,0.0,9.81,1.0,0.0,0.0,0.0,0.0,0.0,0.0
1752698462686,4.44,0.0,-4.63,0.0,0.0,9.81,1.0,0.0,0.0,0.0,0.0,0.0,0.0
1752698462823,5.94,2.88,-2.13,0.0,0.0,9.81,1.0,0.0,0.0,0.0,0.0,0.0,0.0
1752698462934,6.0,5.88,-0.31,0.0,0.0,9.81,1.0,0.0,0.0,0.0,0.0,0.0,0.0
1752698463057,6.13,7.81,-0.06,0.0,0.0,9.81,1.0,0.0,0.0,0.0,0.0,0.0,0.0
1752698463178,5.63,8.94,-0.5,0.0,0.0,9.81,1.0,0.0,0.0,0.0,0.0,0.0,0.0
1752698463312,115.13,-20.0,-163.69,0.0,0.0,9.81,1.0,0.0,0.0,0.0,0.0,0.0,0.0
1752698463429,115.38,-19.63,-164.0,0.0,0.0,9.81,1.0,0.0,0.0,0.0,0.0,0.0,0.0
1752698463543,115.63,-19.0,-164.88,0.0,0.0,9.81,1.0,0.0,0.0,0.0,0.0,0.0,0.0
1752698463665,116.06,-18.88,-165.13,0.0,0.0,9.81,1.0,0.0,0.0,0.0,0.0,0.0,0.0
1752698463797,116.06,-19.13,-165.31,0.0,0.0,9.81,1.0,0.0,0.0,0.0,0.0,0.0,0.0
1752698464016,117.25,-22.06,-167.19,0.0,0.0,9.81,1.0,0.0,0.0,0.0,0.0,0.0,0.0
1752698464140,117.31,-26.31,-168.5,0.0,0.0,9.81,1.0,0.0,0.0,0.0,0.0,0.0,0.0
1752698464266,120.06,-32.19,-168.5,0.0,0.0,9.81,1.0,0.0,0.0,0.0,0.0,0.0,0.0
1752698464383,121.56,-33.81,-168.69,0.0,0.0,9.81,1.0,0.0,0.0,0.0,0.0,0.0,0.0
1752698464514,122.56,-35.13,-167.56,0.0,0.0,9.81,1.0,0.0,0.0,0.0,0.0,0.0,0.0
1752698464633,123.5,-35.56,-167.69,0.0,0.0,9.81,1.0,0.0,0.0,0.0,0.0,0.0,0.0
1752698464768,124.63,-36.13,-165.69,0.0,0.0,9.81,1.0,0.0,0.0,0.0,0.0,0.0,0.0
1752698464979,129.69,-34.13,-162.5,0.0,0.0,9.81,1.0,0.0,0.0,0.0,0.0,0.0,0.0
1752698465102,134.44,-29.69,-170.5,0.0,0.0,9.81,1.0,0.0,0.0,0.0,0.0,0.0,0.0
1752698465236,135.31,-17.94,172.75,0.0,0.0,9.81,1.0,0.0,0.0,0.0,0.0,0.0,0.0
1752698465344,131.44,-13.31,173.38,0.0,0.0,9.81,1.0,0.0,0.0,0.0,0.0,0.0,0.0
1752698465469,124.94,-14.31,173.88,0.0,0.0,9.81,1.0,0.0,0.0,0.0,0.0,0.0,0.0
1752698465588,121.63,-14.94,169.38,0.0,0.0,9.81,1.0,0.0,0.0,0.0,0.0,0.0,0.0
1752698465717,119.13,-14.19,160.44,0.0,0.0,9.81,1.0,0.0,0.0,0.0,0.0,0.0,0.0
1752698465839,112.38,-17.44,160.31,0.0,0.0,9.81,1.0,0.0,0.0,0.0,0.0,0.0,0.0
1752698465971,100.56,-22.88,166.06,0.0,0.0,9.81,1.0,0.0,0.0,0.0,0.0,0.0,0.0
1752698466094,93.75,-31.94,168.63,0.0,0.0,9.81,1.0,0.0,0.0,0.0,0.0,0.0,0.0
1752698466329,77.19,-59.38,-164.25,0.0,0.0,9.81,1.0,0.0,0.0,0.0,0.0,0.0,0.0
1752698466447,62.31,-65.38,-130.19,0.0,0.0,9.81,1.0,0.0,0.0,0.0,0.0,0.0,0.0
1752698466577,60.5,-56.63,-126.63,0.0,0.0,9.81,1.0,0.0,0.0,0.0,0.0,0.0,0.0
1752698466796,61.44,-40.63,-140.19,0.0,0.0,9.81,1.0,0.0,0.0,0.0,0.0,0.0,0.0
1752698466929,58.13,-37.75,-139.5,0.0,0.0,9.81,1.0,0.0,0.0,0.0,0.0,0.0,0.0
1752698467047,59.0,-38.25,-140.31,0.0,0.0,9.81,1.0,0.0,0.0,0.0,0.0,0.0,0.0
1752698467164,59.0,-38.56,-140.13,0.0,0.0,9.81,1.0,0.0,0.0,0.0,0.0,0.0,0.0
1752698467396,61.06,-39.56,-140.94,0.0,0.0,9.81,1.0,0.0,0.0,0.0,0.0,0.0,0.0
1752698467514,255.13,-40.0,-140.81,0.0,0.0,9.81,1.0,0.0,0.0,0.0,0.0,0.0,0.0
1752698467650,256.69,-40.63,-141.25,0.0,0.0,9.81,1.0,0.0,0.0,0.0,0.0,0.0,0.0
1752698467866,257.94,-40.31,-141.94,0.0,0.0,9.81,1.0,0.0,0.0,0.0,0.0,0.0,0.0
1752698467987,258.38,-40.69,-142.06,0.0,0.0,9.81,1.0,0.0,0.0,0.0,0.0,0.0,0.0
1752698468120,258.25,-40.81,-141.5,0.0,0.0,9.81,1.0,0.0,0.0,0.0,0.0,0.0,0.0
1752698468238,258.25,-40.88,-141.44,0.0,0.0,9.81,1.0,0.0,0.0,0.0,0.0,0.0,0.0
1752698468371,258.25,-41.06,-140.94,0.0,0.0,9.81,1.0,0.0,0.0,0.0,0.0,0.0,0.0
1752698468488,258.81,-40.88,-141.81,0.0,0.0,9.81,1.0,0.0,0.0,0.0,0.0,0.0,0.0
1752698468623,259.19,-41.25,-141.94,0.0,0.0,9.81,1.0,0.0,0.0,0.0,0.0,0.0,0.0
1752698468738,258.94,-41.5,-141.19,0.0,0.0,9.81,1.0,0.0,0.0,0.0,0.0,0.0,0.0
1752698488854,0.0,0.0,0.0,0.0,0.0,9.81,1.0,0.0,0.0,0.0,0.0,0.0,0.0
1752698488973,352.63,2.38,-2.63,0.0,0.0,9.81,1.0,0.0,0.0,0.0,0.0,0.0,0.0
1752698489098,348.0,4.88,3.0,0.0,0.0,9.81,1.0,0.0,0.0,0.0,0.0,0.0,0.0
1752698489224,348.0,9.81,6.25,0.0,0.0,9.81,1.0,0.0,0.0,0.0,0.0,0.0,0.0
1752698489346,349.06,16.69,4.75,0.0,0.0,9.81,1.0,0.0,0.0,0.0,0.0,0.0,0.0
1752698489563,349.88,18.06,4.63,0.0,0.0,9.81,1.0,0.0,0.0,0.0,0.0,0.0,0.0
1752698489691,170.56,-17.13,157.69,0.0,0.0,9.81,1.0,0.0,0.0,0.0,0.0,0.0,0.0
1752698489808,170.69,-17.13,157.31,0.0,0.0,9.81,1.0,0.0,0.0,0.0,0.0,0.0,0.0
1752698489932,170.88,-17.06,157.31,0.0,0.0,9.81,1.0,0.0,0.0,0.0,0.0,0.0,0.0
1752698490058,170.94,-17.0,157.19,0.0,0.0,9.81,1.0,0.0,0.0,0.0,0.0,0.0,0.0
1752698490175,171.06,-17.0,156.94,0.0,0.0,9.81,1.0,0.0,0.0,0.0,0.0,0.0,0.0
1752698490414,171.5,-16.94,155.75,0.0,0.0,9.81,1.0,0.0,0.0,0.0,0.0,0.0,0.0
1752698490630,165.94,-3.94,161.69,0.0,0.0,9.81,1.0,0.0,0.0,0.0,0.0,0.0,0.0
1752698490867,159.0,5.56,165.19,0.0,0.0,9.81,1.0,0.0,0.0,0.0,0.0,0.0,0.0
1752698491086,154.31,5.94,161.88,0.0,0.0,9.81,1.0,0.0,0.0,0.0,0.0,0.0,0.0
1752698491210,151.38,4.31,159.38,0.0,0.0,9.81,1.0,0.0,0.0,0.0,0.0,0.0,0.0
1752698491336,149.0,2.69,157.13,0.0,0.0,9.81,1.0,0.0,0.0,0.0,0.0,0.0,0.0
1752698491452,147.25,2.19,155.69,0.0,0.0,9.81,1.0,0.0,0.0,0.0,0.0,0.0,0.0
1752698491586,146.5,1.88,155.06,0.0,0.0,9.81,1.0,0.0,0.0,0.0,0.0,0.0,0.0
1752698491694,146.38,1.94,155.31,0.0,0.0,9.81,1.0,0.0,0.0,0.0,0.0,0.0,0.0
1752698491816,146.56,2.06,155.38,0.0,0.0,9.81,1.0,0.0,0.0,0.0,0.0,0.0,0.0
1752698492038,147.06,2.13,155.38,0.0,0.0,9.81,1.0,0.0,0.0,0.0,0.0,0.0,0.0
1752698492171,146.88,2.19,155.38,0.0,0.0,9.81,1.0,0.0,0.0,0.0,0.0,0.0,0.0
1752698492288,146.81,2.13,155.25,0.0,0.0,9.81,1.0,0.0,0.0,0.0,0.0,0.0,0.0
1752698492422,146.81,2.06,155.13,0.0,0.0,9.81,1.0,0.0,0.0,0.0,0.0,0.0,0.0
1752698492631,146.75,1.94,154.75,0.0,0.0,9.81,1.0,0.0,0.0,0.0,0.0,0.0,0.0
1752698492753,148.88,1.63,155.63,0.0,0.0,9.81,1.0,0.0,0.0,0.0,0.0,0.0,0.0
1752698492876,163.75,-1.56,156.31,0.0,0.0,9.81,1.0,0.0,0.0,0.0,0.0,0.0,0.0
1752698492994,183.75,-4.25,153.13,0.0,0.0,9.81,1.0,0.0,0.0,0.0,0.0,0.0,0.0
1752698493123,194.25,-3.63,149.69,0.0,0.0,9.81,1.0,0.0,0.0,0.0,0.0,0.0,0.0
1752698493245,196.5,-4.25,148.56,0.0,0.0,9.81,1.0,0.0,0.0,0.0,0.0,0.0,0.0
1752698493369,197.25,-4.44,149.38,0.0,0.0,9.81,1.0,0.0,0.0,0.0,0.0,0.0,0.0
1752698493593,196.94,-4.06,150.94,0.0,0.0,9.81,1.0,0.0,0.0,0.0,0.0,0.0,0.0
1752698493714,197.63,-4.13,150.5,0.0,0.0,9.81,1.0,0.0,0.0,0.0,0.0,0.0,0.0
1752698493831,195.25,-4.13,151.56,0.0,0.0,9.81,1.0,0.0,0.0,0.0,0.0,0.0,0.0
1752698493963,174.19,-7.75,146.5,0.0,0.0,9.81,1.0,0.0,0.0,0.0,0.0,0.0,0.0
1752698494077,146.69,-11.69,141.31,0.0,0.0,9.81,1.0,0.0,0.0,0.0,0.0,0.0,0.0
1752698494206,138.56,-11.19,141.38,0.0,0.0,9.81,1.0,0.0,0.0,0.0,0.0,0.0,0.0
1752698494335,137.0,-10.44,142.0,0.0,0.0,9.81,1.0,0.0,0.0,0.0,0.0,0.0,0.0
1752698494558,137.19,-10.31,142.81,0.0,0.0,9.81,1.0,0.0,0.0,0.0,0.0,0.0,0.0
1752698494673,137.0,-10.13,143.13,0.0,0.0,9.81,1.0,0.0,0.0,0.0,0.0,0.0,0.0
1752698494797,136.88,-10.25,143.06,0.0,0.0,9.81,1.0,0.0,0.0,0.0,0.0,0.0,0.0
1752698495013,136.94,-10.13,143.38,0.0,0.0,9.81,1.0,0.0,0.0,0.0,0.0,0.0,0.0
1752698495241,137.0,-10.31,143.56,0.0,0.0,9.81,1.0,0.0,0.0,0.0,0.0,0.0,0.0
1752698495375,137.13,-10.44,143.44,0.0,0.0,9.81,1.0,0.0,0.0,0.0,0.0,0.0,0.0
1752698495596,137.25,-10.75,143.19,0.0,0.0,9.81,1.0,0.0,0.0,0.0,0.0,0.0,0.0
1752698495830,137.31,-10.94,143.06,0.0,0.0,9.81,1.0,0.0,0.0,0.0,0.0,0.0,0.0
1752698496047,137.31,-11.13,142.69,0.0,0.0,9.81,1.0,0.0,0.0,0.0,0.0,0.0,0.0
1752698496180,137.25,-11.19,142.69,0.0,0.0,9.81,1.0,0.0,0.0,0.0,0.0,0.0,0.0
1752698496297,137.25,-11.38,142.56,0.0,0.0,9.81,1.0,0.0,0.0,0.0,0.0,0.0,0.0
1752698496433,137.31,-11.38,142.5,0.0,0.0,9.81,1.0,0.0,0.0,0.0,0.0,0.0,0.0
1752698496551,137.31,-11.44,142.44,0.0,0.0,9.81,1.0,0.0,0.0,0.0,0.0,0.0,0.0
1752698496676,137.38,-11.5,142.5,0.0,0.0,9.81,1.0,0.0,0.0,0.0,0.0,0.0,0.0
1752698496903,137.31,-11.5,142.44,0.0,0.0,9.81,1.0,0.0,0.0,0.0,0.0,0.0,0.0
1752698497133,137.31,-11.63,142.19,0.0,0.0,9.81,1.0,0.0,0.0,0.0,0.0,0.0,0.0
1752698497253,176.56,-16.81,141.88,0.0,0.0,9.81,1.0,0.0,0.0,0.0,0.0,0.0,0.0
1752698497578,195.56,-2.75,138.0,0.0,0.0,9.81,1.0,0.0,0.0,0.0,0.0,0.0,0.0
1752698497702,180.31,-12.81,139.94,0.0,0.0,9.81,1.0,0.0,0.0,0.0,0.0,0.0,0.0
1752698497820,151.13,-22.31,153.56,0.0,0.0,9.81,1.0,0.0,0.0,0.0,0.0,0.0,0.0
1752698497943,123.06,-24.25,140.94,0.0,0.0,9.81,1.0,0.0,0.0,0.0,0.0,0.0,0.0
1752698498063,235.0,-21.56,130.81,0.0,0.0,9.81,1.0,0.0,0.0,0.0,0.0,0.0,0.0
1752698498189,215.5,-28.75,142.5,0.0,0.0,9.81,1.0,0.0,0.0,0.0,0.0,0.0,0.0
1752698498420,175.44,-17.44,156.75,0.0,0.0,9.81,1.0,0.0,0.0,0.0,0.0,0.0,0.0
1752698498543,183.25,1.0,155.06,0.0,0.0,9.81,1.0,0.0,0.0,0.0,0.0,0.0,0.0
1752698498668,166.75,18.25,153.31,0.0,0.0,9.81,1.0,0.0,0.0,0.0,0.0,0.0,0.0
1752698498786,18.13,18.56,126.94,0.0,0.0,9.81,1.0,0.0,0.0,0.0,0.0,0.0,0.0
1752698498902,350.75,10.5,123.25,0.0,0.0,9.81,1.0,0.0,0.0,0.0,0.0,0.0,0.0
1752698499123,142.56,-11.06,144.13,0.0,0.0,9.81,1.0,0.0,0.0,0.0,0.0,0.0,0.0
1752698499244,136.44,-22.0,167.25,0.0,0.0,9.81,1.0,0.0,0.0,0.0,0.0,0.0,0.0
1752698499374,132.56,-33.5,-149.56,0.0,0.0,9.81,1.0,0.0,0.0,0.0,0.0,0.0,0.0
1752698499504,30.19,-31.69,-135.88,0.0,0.0,9.81,1.0,0.0,0.0,0.0,0.0,0.0,0.0
1752698499621,24.19,-29.5,-135.19,0.0,0.0,9.81,1.0,0.0,0.0,0.0,0.0,0.0,0.0
1752698499735,136.5,-20.38,-166.44,0.0,0.0,9.81,1.0,0.0,0.0,0.0,0.0,0.0,0.0
1752698499953,154.5,-18.63,146.25,0.0,0.0,9.81,1.0,0.0,0.0,0.0,0.0,0.0,0.0
1752698500074,295.38,-20.0,125.31,0.0,0.0,9.81,1.0,0.0,0.0,0.0,0.0,0.0,0.0
1752698500396,147.44,-16.0,178.44,0.0,0.0,9.81,1.0,0.0,0.0,0.0,0.0,0.0,0.0
1752698500524,139.44,-18.31,-155.38,0.0,0.0,9.81,1.0,0.0,0.0,0.0,0.0,0.0,0.0
1752698500851,151.63,-17.5,163.69,0.0,0.0,9.81,1.0,0.0,0.0,0.0,0.0,0.0,0.0
1752698500969,156.75,-17.75,149.94,0.0,0.0,9.81,1.0,0.0,0.0,0.0,0.0,0.0,0.0
1752698501194,301.69,-18.81,123.81,0.0,0.0,9.81,1.0,0.0,0.0,0.0,0.0,0.0,0.0
1752698501314,301.25,-18.63,124.19,0.0,0.0,9.81,1.0,0.0,0.0,0.0,0.0,0.0,0.0
1752698501548,294.94,-17.06,134.63,0.0,0.0,9.81,1.0,0.0,0.0,0.0,0.0,0.0,0.0
1752698501762,288.06,-14.69,169.13,0.0,0.0,9.81,1.0,0.0,0.0,0.0,0.0,0.0,0.0
1752698501885,284.0,-16.5,-177.19,0.0,0.0,9.81,1.0,0.0,0.0,0.0,0.0,0.0,0.0
1752698502204,277.38,-21.75,-154.25,0.0,0.0,9.81,1.0,0.0,0.0,0.0,0.0,0.0,0.0
1752698502434,166.56,-34.69,-123.94,0.0,0.0,9.81,1.0,0.0,0.0,0.0,0.0,0.0,0.0
1752698502554,183.81,-34.81,-137.19,0.0,0.0,9.81,1.0,0.0,0.0,0.0,0.0,0.0,0.0
1752698502687,281.75,-25.38,-171.0,0.0,0.0,9.81,1.0,0.0,0.0,0.0,0.0,0.0,0.0
1752698502803,291.56,-20.5,-176.5,0.0,0.0,9.81,1.0,0.0,0.0,0.0,0.0,0.0,0.0
1752698503026,326.75,-8.5,172.94,0.0,0.0,9.81,1.0,0.0,0.0,0.0,0.0,0.0,0.0
1752698503148,317.25,-5.94,169.13,0.0,0.0,9.81,1.0,0.0,0.0,0.0,0.0,0.0,0.0
1752698503270,294.38,-13.13,167.88,0.0,0.0,9.81,1.0,0.0,0.0,0.0,0.0,0.0,0.0
1752698503391,270.81,-16.44,157.94,0.0,0.0,9.81,1.0,0.0,0.0,0.0,0.0,0.0,0.0
1752698503615,295.81,-13.69,174.31,0.0,0.0,9.81,1.0,0.0,0.0,0.0,0.0,0.0,0.0
1752698503735,318.56,-4.88,176.88,0.0,0.0,9.81,1.0,0.0,0.0,0.0,0.0,0.0,0.0
1752698503859,323.69,1.56,175.94,0.0,0.0,9.81,1.0,0.0,0.0,0.0,0.0,0.0,0.0
1752698503982,307.94,-1.38,176.38,0.0,0.0,9.81,1.0,0.0,0.0,0.0,0.0,0.0,0.0
1752698504103,282.69,-15.13,162.13,0.0,0.0,9.81,1.0,0.0,0.0,0.0,0.0,0.0,0.0
1752698504220,264.63,-19.75,155.38,0.0,0.0,9.81,1.0,0.0,0.0,0.0,0.0,0.0,0.0
1752698504354,270.19,-21.13,156.88,0.0,0.0,9.81,1.0,0.0,0.0,0.0,0.0,0.0,0.0
1752698504466,296.69,-14.19,172.44,0.0,0.0,9.81,1.0,0.0,0.0,0.0,0.0,0.0,0.0
1752698504600,318.94,4.69,170.31,0.0,0.0,9.81,1.0,0.0,0.0,0.0,0.0,0.0,0.0
1752698504718,323.5,10.69,166.25,0.0,0.0,9.81,1.0,0.0,0.0,0.0,0.0,0.0,0.0
1752698504839,309.63,-2.69,167.75,0.0,0.0,9.81,1.0,0.0,0.0,0.0,0.0,0.0,0.0
1752698505057,271.56,-31.75,146.94,0.0,0.0,9.81,1.0,0.0,0.0,0.0,0.0,0.0,0.0
1752698505182,357.06,-31.81,146.25,0.0,0.0,9.81,1.0,0.0,0.0,0.0,0.0,0.0,0.0
1752698505309,292.19,-25.69,160.19,0.0,0.0,9.81,1.0,0.0,0.0,0.0,0.0,0.0,0.0
1752698505535,319.0,7.63,165.5,0.0,0.0,9.81,1.0,0.0,0.0,0.0,0.0,0.0,0.0
1752698505654,315.5,4.69,165.25,0.0,0.0,9.81,1.0,0.0,0.0,0.0,0.0,0.0,0.0
1752698505777,300.38,-13.25,168.94,0.0,0.0,9.81,1.0,0.0,0.0,0.0,0.0,0.0,0.0
1752698505901,280.06,-29.56,159.31,0.0,0.0,9.81,1.0,0.0,0.0,0.0,0.0,0.0,0.0
1752698506123,278.31,-31.0,152.81,0.0,0.0,9.81,1.0,0.0,0.0,0.0,0.0,0.0,0.0
1752698506246,283.19,-25.5,158.56,0.0,0.0,9.81,1.0,0.0,0.0,0.0,0.0,0.0,0.0
1752698506365,282.69,-25.75,158.13,0.0,0.0,9.81,1.0,0.0,0.0,0.0,0.0,0.0,0.0
1752698506484,282.44,-25.75,158.63,0.0,0.0,9.81,1.0,0.0,0.0,0.0,0.0,0.0,0.0
1752698506712,282.5,-25.38,159.19,0.0,0.0,9.81,1.0,0.0,0.0,0.0,0.0,0.0,0.0
1752698506838,282.25,-25.0,159.56,0.0,0.0,9.81,1.0,0.0,0.0,0.0,0.0,0.0,0.0
1752698506962,282.19,-24.81,159.75,0.0,0.0,9.81,1.0,0.0,0.0,0.0,0.0,0.0,0.0
1752698507182,282.19,-24.63,159.81,0.0,0.0,9.81,1.0,0.0,0.0,0.0,0.0,0.0,0.0
1752698507318,282.06,-24.5,159.88,0.0,0.0,9.81,1.0,0.0,0.0,0.0,0.0,0.0,0.0
1752698507425,281.94,-24.44,159.88,0.0,0.0,9.81,1.0,0.0,0.0,0.0,0.0,0.0,0.0
1752698507551,282.0,-24.25,160.0,0.0,0.0,9.81,1.0,0.0,0.0,0.0,0.0,0.0,0.0
1752698507675,281.81,-24.38,160.0,0.0,0.0,9.81,1.0,0.0,0.0,0.0,0.0,0.0,0.0
1752698507802,281.75,-24.31,160.0,0.0,0.0,9.81,1.0,0.0,0.0,0.0,0.0,0.0,0.0
1752698508237,292.63,-22.06,156.06,0.0,0.0,9.81,1.0,0.0,0.0,0.0,0.0,0.0,0.0
1752698508459,303.25,-16.88,149.06,0.0,0.0,9.81,1.0,0.0,0.0,0.0,0.0,0.0,0.0
1752698508578,307.44,-11.31,148.44,0.0,0.0,9.81,1.0,0.0,0.0,0.0,0.0,0.0,0.0
1752698508711,311.88,-6.06,148.81,0.0,0.0,9.81,1.0,0.0,0.0,0.0,0.0,0.0,0.0
1752698508831,316.63,-2.63,147.19,0.0,0.0,9.81,1.0,0.0,0.0,0.0,0.0,0.0,0.0
1752698508955,320.13,1.94,146.81,0.0,0.0,9.81,1.0,0.0,0.0,0.0,0.0,0.0,0.0
1752698509079,322.94,3.94,146.56,0.0,0.0,9.81,1.0,0.0,0.0,0.0,0.0,0.0,0.0
1752698509213,325.94,5.38,145.31,0.0,0.0,9.81,1.0,0.0,0.0,0.0,0.0,0.0,0.0
1752698509325,327.25,6.38,144.63,0.0,0.0,9.81,1.0,0.0,0.0,0.0,0.0,0.0,0.0
1752698509469,329.13,7.25,143.31,0.0,0.0,9.81,1.0,0.0,0.0,0.0,0.0,0.0,0.0
1752698509583,330.56,8.25,142.19,0.0,0.0,9.81,1.0,0.0,0.0,0.0,0.0,0.0,0.0
1752698509805,332.56,9.13,141.44,0.0,0.0,9.81,1.0,0.0,0.0,0.0,0.0,0.0,0.0
1752698509934,333.69,9.56,141.0,0.0,0.0,9.81,1.0,0.0,0.0,0.0,0.0,0.0,0.0
1752698510052,334.56,10.13,140.5,0.0,0.0,9.81,1.0,0.0,0.0,0.0,0.0,0.0,0.0
1752698510285,335.94,10.94,139.44,0.0,0.0,9.81,1.0,0.0,0.0,0.0,0.0,0.0,0.0
1752698510405,337.0,11.25,139.38,0.0,0.0,9.81,1.0,0.0,0.0,0.0,0.0,0.0,0.0
1752698510621,337.19,12.0,140.06,0.0,0.0,9.81,1.0,0.0,0.0,0.0,0.0,0.0,0.0
1752698510848,339.13,12.5,138.69,0.0,0.0,9.81,1.0,0.0,0.0,0.0,0.0,0.0,0.0
1752698510976,339.44,12.94,139.0,0.0,0.0,9.81,1.0,0.0,0.0,0.0,0.0,0.0,0.0
1752698511195,339.0,13.06,138.94,0.0,0.0,9.81,1.0,0.0,0.0,0.0,0.0,0.0,0.0
1752698511309,338.94,13.44,139.88,0.0,0.0,9.81,1.0,0.0,0.0,0.0,0.0,0.0,0.0
1752698511432,339.0,13.44,139.63,0.0,0.0,9.81,1.0,0.0,0.0,0.0,0.0,0.0,0.0
1752698511568,338.94,13.5,139.38,0.0,0.0,9.81,1.0,0.0,0.0,0.0,0.0,0.0,0.0
1752698511796,336.75,16.25,153.44,0.0,0.0,9.81,1.0,0.0,0.0,0.0,0.0,0.0,0.0
1752698512022,335.63,17.56,168.31,0.0,0.0,9.81,1.0,0.0,0.0,0.0,0.0,0.0,0.0
1752698512148,335.63,17.75,172.44,0.0,0.0,9.81,1.0,0.0,0.0,0.0,0.0,0.0,0.0
1752698512375,335.88,17.44,173.25,0.0,0.0,9.81,1.0,0.0,0.0,0.0,0.0,0.0,0.0
1752698512506,336.19,17.0,171.06,0.0,0.0,9.81,1.0,0.0,0.0,0.0,0.0,0.0,0.0
1752698512623,336.31,17.06,172.63,0.0,0.0,9.81,1.0,0.0,0.0,0.0,0.0,0.0,0.0
1752698512746,335.88,17.06,172.69,0.0,0.0,9.81,1.0,0.0,0.0,0.0,0.0,0.0,0.0
1752698512980,335.0,16.25,177.5,0.0,0.0,9.81,1.0,0.0,0.0,0.0,0.0,0.0,0.0
1752698513097,335.25,16.13,-178.75,0.0,0.0,9.81,1.0,0.0,0.0,0.0,0.0,0.0,0.0
1752698513221,335.25,16.31,-178.13,0.0,0.0,9.81,1.0,0.0,0.0,0.0,0.0,0.0,0.0
1752698513338,335.38,16.25,-179.06,0.0,0.0,9.81,1.0,0.0,0.0,0.0,0.0,0.0,0.0
1752698513464,335.25,16.13,-178.81,0.0,0.0,9.81,1.0,0.0,0.0,0.0,0.0,0.0,0.0
1752698513587,334.69,16.06,179.88,0.0,0.0,9.81,1.0,0.0,0.0,0.0,0.0,0.0,0.0
1752698513704,327.5,14.0,-173.56,0.0,0.0,9.81,1.0,0.0,0.0,0.0,0.0,0.0,0.0
1752698513935,283.56,-3.0,-177.88,0.0,0.0,9.81,1.0,0.0,0.0,0.0,0.0,0.0,0.0
1752698514057,286.63,-3.44,-179.06,0.0,0.0,9.81,1.0,0.0,0.0,0.0,0.0,0.0,0.0
1752698514180,303.44,3.81,-179.88,0.0,0.0,9.81,1.0,0.0,0.0,0.0,0.0,0.0,0.0
1752698514305,325.63,9.0,-176.44,0.0,0.0,9.81,1.0,0.0,0.0,0.0,0.0,0.0,0.0
1752698514525,335.0,10.81,179.13,0.0,0.0,9.81,1.0,0.0,0.0,0.0,0.0,0.0,0.0
1752698514643,336.25,10.63,179.63,0.0,0.0,9.81,1.0,0.0,0.0,0.0,0.0,0.0,0.0
1752698514768,339.81,10.5,178.88,0.0,0.0,9.81,1.0,0.0,0.0,0.0,0.0,0.0,0.0
1752698515079,309.31,-1.81,179.63,0.0,0.0,9.81,1.0,0.0,0.0,0.0,0.0,0.0,0.0
1752698515298,271.94,-15.81,166.13,0.0,0.0,9.81,1.0,0.0,0.0,0.0,0.0,0.0,0.0
1752698515432,274.44,-15.31,166.44,0.0,0.0,9.81,1.0,0.0,0.0,0.0,0.0,0.0,0.0
1752698515652,320.06,1.31,-178.25,0.0,0.0,9.81,1.0,0.0,0.0,0.0,0.0,0.0,0.0
1752698515771,335.88,9.06,176.19,0.0,0.0,9.81,1.0,0.0,0.0,0.0,0.0,0.0,0.0
1752698515902,341.31,10.63,172.88,0.0,0.0,9.81,1.0,0.0,0.0,0.0,0.0,0.0,0.0
1752698516021,339.38,9.56,175.5,0.0,0.0,9.81,1.0,0.0,0.0,0.0,0.0,0.0,0.0
1752698516238,296.94,-23.44,175.44,0.0,0.0,9.81,1.0,0.0,0.0,0.0,0.0,0.0,0.0
1752698516363,281.06,-28.19,167.06,0.0,0.0,9.81,1.0,0.0,0.0,0.0,0.0,0.0,0.0
1752698516487,281.44,-26.63,168.13,0.0,0.0,9.81,1.0,0.0,0.0,0.0,0.0,0.0,0.0
1752698516615,297.75,-20.5,173.56,0.0,0.0,9.81,1.0,0.0,0.0,0.0,0.0,0.0,0.0
1752698516840,335.19,9.81,178.75,0.0,0.0,9.81,1.0,0.0,0.0,0.0,0.0,0.0,0.0
1752698517059,328.06,6.31,-179.19,0.0,0.0,9.81,1.0,0.0,0.0,0.0,0.0,0.0,0.0
1752698517184,306.19,-10.75,179.5,0.0,0.0,9.81,1.0,0.0,0.0,0.0,0.0,0.0,0.0
1752698517307,287.25,-24.88,168.19,0.0,0.0,9.81,1.0,0.0,0.0,0.0,0.0,0.0,0.0
1752698517427,283.69,-27.0,164.94,0.0,0.0,9.81,1.0,0.0,0.0,0.0,0.0,0.0,0.0
1752698517544,289.81,-24.25,167.13,0.0,0.0,9.81,1.0,0.0,0.0,0.0,0.0,0.0,0.0
1752698517676,310.44,-9.81,-178.38,0.0,0.0,9.81,1.0,0.0,0.0,0.0,0.0,0.0,0.0
1752698517797,326.63,3.88,-176.81,0.0,0.0,9.81,1.0,0.0,0.0,0.0,0.0,0.0,0.0
1752698517927,326.63,3.5,176.88,0.0,0.0,9.81,1.0,0.0,0.0,0.0,0.0,0.0,0.0
1752698518046,317.0,-2.63,-179.63,0.0,0.0,9.81,1.0,0.0,0.0,0.0,0.0,0.0,0.0
1752698518166,298.13,-20.13,178.06,0.0,0.0,9.81,1.0,0.0,0.0,0.0,0.0,0.0,0.0
1752698518284,286.0,-31.63,168.63,0.0,0.0,9.81,1.0,0.0,0.0,0.0,0.0,0.0,0.0
1752698518409,286.31,-31.19,168.81,0.0,0.0,9.81,1.0,0.0,0.0,0.0,0.0,0.0,0.0
1752698518526,301.75,-18.81,177.19,0.0,0.0,9.81,1.0,0.0,0.0,0.0,0.0,0.0,0.0
1752698518654,322.5,0.69,-176.63,0.0,0.0,9.81,1.0,0.0,0.0,0.0,0.0,0.0,0.0
1752698518770,333.06,8.81,176.56,0.0,0.0,9.81,1.0,0.0,0.0,0.0,0.0,0.0,0.0
1752698518990,329.25,4.88,177.81,0.0,0.0,9.81,1.0,0.0,0.0,0.0,0.0,0.0,0.0
1752698519121,311.63,-14.25,178.44,0.0,0.0,9.81,1.0,0.0,0.0,0.0,0.0,0.0,0.0
1752698519238,294.38,-24.69,170.69,0.0,0.0,9.81,1.0,0.0,0.0,0.0,0.0,0.0,0.0
1752698519557,303.63,-8.13,-177.63,0.0,0.0,9.81,1.0,0.0,0.0,0.0,0.0,0.0,0.0
1752698519685,323.56,4.69,-175.94,0.0,0.0,9.81,1.0,0.0,0.0,0.0,0.0,0.0,0.0
1752698519803,327.75,6.94,179.25,0.0,0.0,9.81,1.0,0.0,0.0,0.0,0.0,0.0,0.0
1752698519938,316.63,1.44,-177.31,0.0,0.0,9.81,1.0,0.0,0.0,0.0,0.0,0.0,0.0
1752698520058,292.88,-16.75,-179.94,0.0,0.0,9.81,1.0,0.0,0.0,0.0,0.0,0.0,0.0
1752698520175,275.06,-24.38,166.81,0.0,0.0,9.81,1.0,0.0,0.0,0.0,0.0,0.0,0.0
1752698520394,275.5,-21.0,168.19,0.0,0.0,9.81,1.0,0.0,0.0,0.0,0.0,0.0,0.0
1752698520525,274.31,-11.81,172.25,0.0,0.0,9.81,1.0,0.0,0.0,0.0,0.0,0.0,0.0
1752698520642,274.19,1.25,-177.5,0.0,0.0,9.81,1.0,0.0,0.0,0.0,0.0,0.0,0.0
1752698520780,278.38,6.75,-178.44,0.0,0.0,9.81,1.0,0.0,0.0,0.0,0.0,0.0,0.0
1752698520889,279.13,11.5,179.0,0.0,0.0,9.81,1.0,0.0,0.0,0.0,0.0,0.0,0.0
1752698521013,280.75,17.19,174.81,0.0,0.0,9.81,1.0,0.0,0.0,0.0,0.0,0.0,0.0
1752698521234,280.38,16.06,170.63,0.0,0.0,9.81,1.0,0.0,0.0,0.0,0.0,0.0,0.0
1752698521458,280.31,15.75,170.75,0.0,0.0,9.81,1.0,0.0,0.0,0.0,0.0,0.0,0.0
1752698521680,280.31,15.75,170.81,0.0,0.0,9.81,1.0,0.0,0.0,0.0,0.0,0.0,0.0
1752698521807,280.31,15.69,170.81,0.0,0.0,9.81,1.0,0.0,0.0,0.0,0.0,0.0,0.0
1752698521928,280.31,15.69,170.81,0.0,0.0,9.81,1.0,0.0,0.0,0.0,0.0,0.0,0.0
1752698522160,280.31,15.69,170.88,0.0,0.0,9.81,1.0,0.0,0.0,0.0,0.0,0.0,0.0
1752698522278,280.25,15.63,170.88,0.0,0.0,9.81,1.0,0.0,0.0,0.0,0.0,0.0,0.0
1752698522400,280.25,15.63,170.88,0.0,0.0,9.81,1.0,0.0,0.0,0.0,0.0,0.0,0.0
1752698522529,280.25,15.63,170.88,0.0,0.0,9.81,1.0,0.0,0.0,0.0,0.0,0.0,0.0
1752698522652,280.25,15.63,170.88,0.0,0.0,9.81,1.0,0.0,0.0,0.0,0.0,0.0,0.0
1752698522773,280.25,15.63,170.94,0.0,0.0,9.81,1.0,0.0,0.0,0.0,0.0,0.0,0.0
1752698522900,280.25,15.63,170.94,0.0,0.0,9.81,1.0,0.0,0.0,0.0,0.0,0.0,0.0
1752698523024,280.25,15.63,171.0,0.0,0.0,9.81,1.0,0.0,0.0,0.0,0.0,0.0,0.0
1752698523141,280.25,15.63,171.06,0.0,0.0,9.81,1.0,0.0,0.0,0.0,0.0,0.0,0.0
1752698523358,280.25,15.63,171.19,0.0,0.0,9.81,1.0,0.0,0.0,0.0,0.0,0.0,0.0
1752698523482,280.25,15.63,171.19,0.0,0.0,9.81,1.0,0.0,0.0,0.0,0.0,0.0,0.0
1752698523606,280.25,15.63,171.25,0.0,0.0,9.81,1.0,0.0,0.0,0.0,0.0,0.0,0.0
1752698523742,280.25,15.63,171.31,0.0,0.0,9.81,1.0,0.0,0.0,0.0,0.0,0.0,0.0
1752698523877,280.25,15.63,171.31,0.0,0.0,9.81,1.0,0.0,0.0,0.0,0.0,0.0,0.0
1752698523981,280.25,15.63,171.31,0.0,0.0,9.81,1.0,0.0,0.0,0.0,0.0,0.0,0.0
1752698524101,280.25,15.63,171.31,0.0,0.0,9.81,1.0,0.0,0.0,0.0,0.0,0.0,0.0
1752698524225,280.25,15.63,171.31,0.0,0.0,9.81,1.0,0.0,0.0,0.0,0.0,0.0,0.0
1752698524349,280.25,15.63,171.31,0.0,0.0,9.81,1.0,0.0,0.0,0.0,0.0,0.0,0.0
1752698524477,280.25,15.63,171.31,0.0,0.0,9.81,1.0,0.0,0.0,0.0,0.0,0.0,0.0
1752698524596,280.25,15.63,171.31,0.0,0.0,9.81,1.0,0.0,0.0,0.0,0.0,0.0,0.0
1752698524720,280.25,15.63,171.31,0.0,0.0,9.81,1.0,0.0,0.0,0.0,0.0,0.0,0.0
1752698524838,280.25,15.63,171.31,0.0,0.0,9.81,1.0,0.0,0.0,0.0,0.0,0.0,0.0
1752698524962,280.25,15.63,171.31,0.0,0.0,9.81,1.0,0.0,0.0,0.0,0.0,0.0,0.0
1752698525086,280.25,15.63,171.31,0.0,0.0,9.81,1.0,0.0,0.0,0.0,0.0,0.0,0.0
1752698525312,280.25,15.63,171.31,0.0,0.0,9.81,1.0,0.0,0.0,0.0,0.0,0.0,0.0
1752698525426,280.25,15.63,171.31,0.0,0.0,9.81,1.0,0.0,0.0,0.0,0.0,0.0,0.0
1752698525760,280.25,15.63,171.31,0.0,0.0,9.81,1.0,0.0,0.0,0.0,0.0,0.0,0.0
1752698525884,280.25,15.63,171.31,0.0,0.0,9.81,1.0,0.0,0.0,0.0,0.0,0.0,0.0
1752698525999,280.25,15.63,171.31,0.0,0.0,9.81,1.0,0.0,0.0,0.0,0.0,0.0,0.0
1752698526121,280.25,15.63,171.31,0.0,0.0,9.81,1.0,0.0,0.0,0.0,0.0,0.0,0.0
1752698526254,280.25,15.63,171.31,0.0,0.0,9.81,1.0,0.0,0.0,0.0,0.0,0.0,0.0
1752698526367,280.25,15.63,171.31,0.0,0.0,9.81,1.0,0.0,0.0,0.0,0.0,0.0,0.0
