timestamp,heading,roll,pitch,acc_x,acc_y,acc_z,lin_acc_x,lin_acc_y,lin_acc_z,quat_w,quat_x,quat_y,quat_z,mag_x,mag_y,mag_z
1752779978305,145.0,-4.0,-125.0,-1.0,8.0,-5.0,-0.2,-0.3,0.4,0.14,0.34,-0.82,-0.44,0.0,0.0,0.0
1752779978306,145.0,-4.0,-125.0,-0.0,8.0,-5.0,0.3,0.0,0.5,0.14,0.34,-0.82,-0.44,0.0,0.0,0.0
1752779978306,145.0,-5.0,-124.0,-1.0,8.0,-5.0,-0.1,-0.3,0.2,0.14,0.34,-0.81,-0.45,0.0,0.0,0.0
1752779978306,145.0,-5.0,-122.0,-0.0,10.0,-6.0,-0.2,-0.1,0.7,0.14,0.34,-0.81,-0.45,0.0,0.0,0.0
1752779978306,141.0,-3.0,-124.0,1.0,8.0,-6.0,1.0,-0.1,-0.9,0.16,0.35,-0.81,-0.44,0.0,0.0,0.0
1752779978306,141.0,-4.0,-125.0,-1.0,8.0,-6.0,-0.2,0.6,-0.9,0.16,0.37,-0.81,-0.43,0.0,0.0,0.0
1752779978514,142.0,-4.0,-126.0,-1.0,9.0,-7.0,-0.1,1.6,-0.7,0.15,0.36,-0.81,-0.43,0.0,0.0,0.0
1752779978547,140.0,-3.0,-126.0,-1.0,8.0,-5.0,-0.1,-0.2,0.4,0.15,0.35,-0.82,-0.43,0.0,0.0,0.0
1752779978581,141.0,-3.0,-126.0,-0.0,7.0,-6.0,0.1,-0.6,0.0,0.15,0.35,-0.82,-0.43,0.0,0.0,0.0
1752779978631,141.0,-3.0,-125.0,0.0,13.0,-9.0,0.8,5.0,-3.5,0.15,0.35,-0.82,-0.43,0.0,0.0,0.0
1752779978665,142.0,-3.0,-124.0,-0.0,8.0,-6.0,0.1,0.1,-0.1,0.15,0.34,-0.82,-0.44,0.0,0.0,0.0
1752779978699,142.0,-3.0,-124.0,-1.0,8.0,-5.0,-0.1,-0.5,0.0,0.15,0.34,-0.82,-0.44,0.0,0.0,0.0
1752779978851,143.0,-3.0,-124.0,0.0,8.0,-5.0,0.5,0.2,0.0,0.15,0.34,-0.81,-0.45,0.0,0.0,0.0
1752779978885,142.0,-3.0,-124.0,-1.0,9.0,-6.0,-0.1,0.6,-0.8,0.15,0.34,-0.82,-0.44,0.0,0.0,0.0
1752779978919,142.0,-3.0,-124.0,-0.0,10.0,-6.0,0.5,2.1,-0.7,0.15,0.34,-0.82,-0.44,0.0,0.0,0.0
1752779978970,144.0,-4.0,-125.0,-0.0,13.0,-8.0,0.5,4.6,-2.8,0.14,0.34,-0.82,-0.44,0.0,0.0,0.0
1752779979004,152.0,-8.0,-127.0,1.0,11.0,-6.0,2.3,3.3,0.1,0.11,0.36,-0.82,-0.44,0.0,0.0,0.0
1752779979038,167.0,-15.0,-131.0,-1.0,10.0,-6.0,2.3,2.3,0.3,0.05,0.39,-0.81,-0.43,0.0,0.0,0.0
1752779979089,192.0,-25.0,-138.0,-4.0,7.0,-6.0,0.6,0.9,1.2,-0.02,0.44,-0.8,-0.4,0.0,0.0,0.0
1752779979119,214.0,-33.0,-145.0,-3.0,2.0,-4.0,2.7,-1.9,2.8,-0.09,0.47,-0.79,-0.39,0.0,0.0,0.0
1752779979159,292.0,-38.0,-154.0,-5.0,2.0,-5.0,1.3,-0.7,1.7,-0.17,0.52,-0.77,-0.34,0.0,0.0,0.0
1752779979208,288.0,-42.0,-165.0,-6.0,1.0,-6.0,0.4,-0.7,-0.4,-0.23,0.54,-0.75,-0.29,0.0,0.0,0.0
1752779979243,282.0,-45.0,-179.0,-5.0,-1.0,-7.0,1.1,-1.4,0.6,-0.3,0.57,-0.73,-0.24,0.0,0.0,0.0
1752779979277,301.0,-49.0,168.0,-7.0,2.0,-5.0,0.8,2.7,0.2,-0.37,0.57,-0.7,-0.21,0.0,0.0,0.0
1752779979328,328.0,-50.0,142.0,-4.0,-6.0,-3.0,2.9,-1.8,2.0,-0.45,0.6,-0.64,-0.15,0.0,0.0,0.0
1752779979363,339.0,-47.0,128.0,-6.0,-8.0,-2.0,0.9,-2.4,2.1,-0.53,0.62,-0.57,-0.1,0.0,0.0,0.0
1752779979408,348.0,-42.0,117.0,-6.0,-8.0,-2.0,1.0,-0.2,0.0,-0.57,0.63,-0.52,-0.06,0.0,0.0,0.0
1752779979440,353.0,-39.0,111.0,-6.0,-8.0,-3.0,0.7,-1.1,0.5,-0.6,0.64,-0.48,-0.04,0.0,0.0,0.0
1752779979482,360.0,-34.0,103.0,-4.0,-9.0,-1.0,0.9,-0.6,0.4,-0.63,0.63,-0.44,-0.01,0.0,0.0,0.0
1752779979530,2.0,-31.0,99.0,-5.0,-10.0,-1.0,0.5,-0.9,-0.6,-0.65,0.63,-0.42,0.01,0.0,0.0,0.0
1752779979675,347.0,-40.0,94.0,-4.0,-9.0,0.0,2.4,-0.2,1.2,-0.69,0.6,-0.39,-0.06,0.0,0.0,0.0
1752779979721,329.0,-53.0,102.0,-8.0,-6.0,1.0,0.4,0.2,1.5,-0.65,0.6,-0.45,-0.15,0.0,0.0,0.0
1752779979865,309.0,-65.0,114.0,-9.0,1.0,-1.0,0.9,0.1,1.1,-0.58,0.57,-0.51,-0.28,0.0,0.0,0.0
1752779980017,238.0,-57.0,-126.0,-7.0,6.0,-4.0,0.6,1.9,-0.4,-0.28,0.44,-0.68,-0.51,0.0,0.0,0.0
1752779980275,232.0,-52.0,-127.0,-7.0,4.0,-6.0,-0.8,0.4,-0.6,-0.25,0.44,-0.7,-0.51,0.0,0.0,0.0
1752779980319,244.0,-49.0,-150.0,-7.0,2.0,-6.0,0.3,-1.1,-0.7,-0.25,0.5,-0.73,-0.39,0.0,0.0,0.0
1752779980470,269.0,-51.0,-169.0,-8.0,0.0,-6.0,0.2,-0.4,-0.2,-0.31,0.54,-0.71,-0.32,0.0,0.0,0.0
1752779980506,274.0,-52.0,-174.0,-8.0,0.0,-6.0,-0.2,-0.1,-0.1,-0.32,0.55,-0.71,-0.3,0.0,0.0,0.0
1752779980539,280.0,-52.0,-178.0,-7.0,1.0,-6.0,0.3,0.6,0.1,-0.33,0.56,-0.7,-0.28,0.0,0.0,0.0
1752779980580,287.0,-52.0,177.0,-8.0,-1.0,-6.0,0.3,-0.5,0.2,-0.35,0.56,-0.7,-0.26,0.0,0.0,0.0
1752779980623,293.0,-52.0,172.0,-8.0,-0.0,-6.0,0.0,0.7,-0.1,-0.37,0.57,-0.69,-0.25,0.0,0.0,0.0
1752779980773,295.0,-52.0,170.0,-8.0,-1.0,-6.0,-0.1,0.3,0.1,-0.37,0.58,-0.69,-0.24,0.0,0.0,0.0
1752779980923,308.0,-52.0,157.0,-8.0,-2.0,-5.0,0.0,-0.1,0.3,-0.42,0.6,-0.65,-0.2,0.0,0.0,0.0
1752779980957,308.0,-52.0,157.0,-8.0,-2.0,-5.0,0.0,0.3,-0.1,-0.42,0.61,-0.65,-0.2,0.0,0.0,0.0
1752779981004,308.0,-52.0,157.0,-8.0,-2.0,-6.0,0.1,0.2,-0.7,-0.42,0.61,-0.65,-0.2,0.0,0.0,0.0
1752779981040,308.0,-52.0,157.0,-8.0,-2.0,-5.0,-0.2,0.6,0.1,-0.42,0.61,-0.65,-0.2,0.0,0.0,0.0
1752779981190,308.0,-52.0,156.0,-8.0,-2.0,-6.0,-0.0,0.2,-0.1,-0.42,0.61,-0.64,-0.21,0.0,0.0,0.0
1752779981224,309.0,-52.0,156.0,-8.0,-2.0,-5.0,0.1,0.3,0.3,-0.42,0.61,-0.64,-0.2,0.0,0.0,0.0
1752779981271,309.0,-52.0,156.0,-8.0,-2.0,-6.0,-0.2,0.1,-0.3,-0.42,0.61,-0.64,-0.2,0.0,0.0,0.0
1752779981409,309.0,-51.0,156.0,-8.0,-2.0,-6.0,0.1,-0.2,-0.1,-0.42,0.61,-0.64,-0.2,0.0,0.0,0.0
1752779981452,308.0,-51.0,157.0,-7.0,-2.0,-7.0,0.4,0.7,-1.3,-0.41,0.61,-0.64,-0.2,0.0,0.0,0.0
1752779981592,287.0,-63.0,158.0,-9.0,-1.0,-3.0,-0.6,0.7,0.0,-0.41,0.62,-0.63,-0.22,0.0,0.0,0.0
1752779981646,288.0,-64.0,153.0,-9.0,-2.0,-4.0,0.0,0.4,-0.4,-0.44,0.62,-0.56,-0.32,0.0,0.0,0.0
1752779981773,303.0,-57.0,122.0,-9.0,-4.0,-2.0,-0.3,0.8,0.3,-0.45,0.64,-0.53,-0.33,0.0,0.0,0.0
1752779981814,307.0,-54.0,116.0,-8.0,-5.0,-2.0,0.1,1.0,-0.0,-0.54,0.68,-0.41,-0.27,0.0,0.0,0.0
1752779981852,316.0,-49.0,109.0,-7.0,-7.0,-2.0,0.5,-0.5,0.2,-0.58,0.69,-0.37,-0.24,0.0,0.0,0.0
1752779981893,322.0,-43.0,104.0,-6.0,-8.0,-1.0,0.3,-1.2,0.6,-0.61,0.69,-0.33,-0.21,0.0,0.0,0.0
1752779981938,325.0,-40.0,100.0,-4.0,-9.0,0.0,2.1,-1.9,1.7,-0.63,0.69,-0.3,-0.2,0.0,0.0,0.0
1752779981975,326.0,-39.0,100.0,-6.0,-7.0,-1.0,0.2,0.0,0.2,-0.63,0.69,-0.29,-0.19,0.0,0.0,0.0
1752779982023,324.0,-41.0,101.0,-7.0,-8.0,-1.0,-0.6,-0.7,0.5,-0.62,0.69,-0.3,-0.2,0.0,0.0,0.0
1752779982062,321.0,-45.0,104.0,-7.0,-6.0,-2.0,0.3,0.5,-0.7,-0.61,0.68,-0.34,-0.21,0.0,0.0,0.0
1752779982110,320.0,-48.0,107.0,-7.0,-6.0,-2.0,0.9,-0.8,0.7,-0.6,0.67,-0.38,-0.22,0.0,0.0,0.0
1752779982149,315.0,-51.0,110.0,-7.0,-7.0,-2.0,0.3,-1.3,0.6,-0.58,0.67,-0.4,-0.24,0.0,0.0,0.0
1752779982184,304.0,-58.0,122.0,-8.0,-6.0,-1.0,0.9,-2.3,1.9,-0.54,0.66,-0.44,-0.27,0.0,0.0,0.0
1752779982231,290.0,-65.0,145.0,-6.0,-3.0,-4.0,2.4,-0.7,0.0,-0.49,0.64,-0.51,-0.32,0.0,0.0,0.0
1752779982272,277.0,-65.0,172.0,-7.0,0.0,-6.0,1.6,-0.6,-1.8,-0.4,0.6,-0.59,-0.36,0.0,0.0,0.0
1752779982315,253.0,-61.0,-151.0,-8.0,2.0,-2.0,1.0,-1.6,1.8,-0.33,0.54,-0.65,-0.42,0.0,0.0,0.0
1752779982460,208.0,-31.0,-126.0,-5.0,5.0,-5.0,0.7,-0.3,-0.5,-0.12,0.34,-0.8,-0.48,0.0,0.0,0.0
1752779982496,206.0,-30.0,-124.0,-4.0,8.0,-5.0,0.6,1.3,0.2,-0.11,0.33,-0.8,-0.49,0.0,0.0,0.0
1752779982537,205.0,-30.0,-123.0,-4.0,9.0,-4.0,0.9,1.3,0.5,-0.11,0.31,-0.8,-0.5,0.0,0.0,0.0
1752779982587,204.0,-29.0,-123.0,-5.0,8.0,-6.0,-0.1,0.4,-1.0,-0.11,0.31,-0.8,-0.5,0.0,0.0,0.0
1752779982621,205.0,-30.0,-124.0,-6.0,10.0,-6.0,-0.9,3.0,-1.7,-0.11,0.32,-0.8,-0.5,0.0,0.0,0.0
1752779982654,210.0,-32.0,-125.0,-8.0,13.0,-5.0,-1.9,7.4,-0.9,-0.13,0.33,-0.8,-0.49,0.0,0.0,0.0
1752779982694,223.0,-41.0,-130.0,-7.0,10.0,-3.0,0.3,5.7,1.8,-0.18,0.39,-0.77,-0.47,0.0,0.0,0.0
1752779982738,259.0,-55.0,-158.0,-7.0,-3.0,-5.0,1.4,-4.1,0.5,-0.29,0.49,-0.72,-0.4,0.0,0.0,0.0
1752779982785,277.0,-62.0,-176.0,-7.0,4.0,-3.0,1.3,4.0,1.0,-0.37,0.54,-0.68,-0.34,0.0,0.0,0.0
1752779982922,288.0,-68.0,165.0,-3.0,-5.0,-2.0,3.5,2.2,0.1,-0.46,0.55,-0.61,-0.33,0.0,0.0,0.0
1752779982955,342.0,-35.0,100.0,-3.0,-9.0,-2.0,2.0,0.3,-1.7,-0.65,0.68,-0.34,-0.1,0.0,0.0,0.0
1752779983006,352.0,-26.0,95.0,-2.0,-5.0,-3.0,1.9,4.5,-2.2,-0.68,0.68,-0.27,-0.05,0.0,0.0,0.0
1752779983039,0.0,-15.0,90.0,-1.0,-9.0,-1.0,1.2,-0.0,-2.4,-0.71,0.68,-0.19,0.0,0.0,0.0,0.0
1752779983089,9.0,-1.0,85.0,3.0,-10.0,-0.0,2.7,-0.7,-1.4,-0.73,0.68,-0.09,0.05,0.0,0.0,0.0
1752779983123,10.0,7.0,83.0,3.0,-11.0,-0.0,1.3,-1.4,-1.7,-0.75,0.66,0.02,0.07,0.0,0.0,0.0
1752779983156,8.0,13.0,79.0,3.0,-8.0,1.0,1.9,-0.5,-1.1,-0.77,0.63,0.11,0.05,0.0,0.0,0.0
1752779983197,4.0,18.0,76.0,8.0,-13.0,2.0,4.8,-4.0,-0.6,-0.78,0.6,0.17,0.03,0.0,0.0,0.0
1752779983336,319.0,-1.0,66.0,0.0,-7.0,4.0,1.1,2.1,-0.4,-0.79,0.51,0.18,-0.29,0.0,0.0,0.0
1752779983576,282.0,-22.0,45.0,-10.0,-0.0,18.0,-5.7,3.3,10.3,-0.77,0.47,0.16,-0.39,0.0,0.0,0.0
1752779983631,265.0,-32.0,24.0,-6.0,-4.0,10.0,-0.2,-0.7,1.5,-0.64,0.33,-0.05,-0.69,0.0,0.0,0.0
1752779983668,260.0,-34.0,17.0,-5.0,-1.0,7.0,0.5,1.8,-0.0,-0.61,0.31,-0.08,-0.72,0.0,0.0,0.0
1752779983710,255.0,-37.0,11.0,-5.0,-1.0,8.0,1.8,-1.0,0.3,-0.57,0.3,-0.13,-0.75,0.0,0.0,0.0
1752779983750,251.0,-40.0,6.0,-6.0,-0.0,7.0,-0.8,0.8,1.4,-0.54,0.3,-0.17,-0.76,0.0,0.0,0.0
1752779983887,229.0,-46.0,-21.0,-7.0,4.0,8.0,1.6,1.3,-0.0,-0.39,0.31,-0.28,-0.82,0.0,0.0,0.0
1752779983937,221.0,-47.0,-32.0,-7.0,5.0,6.0,0.4,1.4,-0.0,-0.32,0.31,-0.32,-0.83,0.0,0.0,0.0
1752779983970,218.0,-46.0,-37.0,-6.0,4.0,7.0,1.0,-0.1,1.6,-0.28,0.31,-0.36,-0.83,0.0,0.0,0.0
1752779984011,214.0,-47.0,-44.0,-5.0,3.0,4.0,1.9,-1.9,-1.1,-0.25,0.32,-0.39,-0.83,0.0,0.0,0.0
1752779984051,205.0,-44.0,-53.0,-7.0,10.0,3.0,-0.0,3.1,-1.8,-0.18,0.33,-0.42,-0.83,0.0,0.0,0.0
1752779984094,199.0,-42.0,-60.0,-6.0,7.0,4.0,0.2,0.3,0.2,-0.14,0.34,-0.44,-0.82,0.0,0.0,0.0
1752779984134,198.0,-41.0,-65.0,-6.0,8.0,2.0,0.0,1.4,-0.6,-0.13,0.33,-0.47,-0.81,0.0,0.0,0.0
1752779984171,196.0,-41.0,-67.0,-6.0,7.0,2.0,0.6,0.3,-0.4,-0.11,0.34,-0.49,-0.8,0.0,0.0,0.0
1752779984212,196.0,-40.0,-71.0,-6.0,7.0,3.0,0.1,0.6,0.3,-0.11,0.34,-0.51,-0.78,0.0,0.0,0.0
1752779984251,195.0,-40.0,-73.0,-7.0,8.0,3.0,-0.6,-0.1,0.5,-0.1,0.34,-0.52,-0.77,0.0,0.0,0.0
1752779984288,195.0,-40.0,-77.0,-6.0,7.0,1.0,0.6,-0.1,-0.2,-0.1,0.36,-0.54,-0.76,0.0,0.0,0.0
1752779984328,194.0,-40.0,-80.0,-6.0,7.0,1.0,0.4,-0.1,-0.4,-0.09,0.36,-0.55,-0.75,0.0,0.0,0.0
1752779984371,193.0,-39.0,-82.0,-6.0,7.0,0.0,0.3,-0.1,-0.4,-0.08,0.37,-0.56,-0.74,0.0,0.0,0.0
1752779984421,193.0,-39.0,-85.0,-6.0,7.0,-0.0,0.3,0.1,-0.4,-0.09,0.37,-0.57,-0.73,0.0,0.0,0.0
1752779984445,194.0,-39.0,-85.0,-6.0,8.0,0.0,0.3,0.8,-0.7,-0.09,0.36,-0.58,-0.72,0.0,0.0,0.0
1752779984488,195.0,-39.0,-86.0,-6.0,9.0,0.0,-0.1,2.4,0.4,-0.1,0.36,-0.58,-0.72,0.0,0.0,0.0
1752779984640,227.0,-57.0,-82.0,-8.0,7.0,-1.0,0.3,2.4,-1.5,-0.28,0.38,-0.57,-0.68,0.0,0.0,0.0
1752779984690,239.0,-65.0,-72.0,-7.0,6.0,1.0,2.7,1.4,-0.0,-0.35,0.39,-0.54,-0.66,0.0,0.0,0.0
1752779984723,255.0,-73.0,-49.0,-8.0,1.0,-1.0,1.8,0.0,-3.0,-0.47,0.41,-0.49,-0.61,0.0,0.0,0.0
1752779984758,266.0,-72.0,-8.0,-7.0,6.0,4.0,1.8,3.7,5.3,-0.55,0.41,-0.42,-0.59,0.0,0.0,0.0
1752779984798,278.0,-61.0,17.0,-8.0,-1.0,10.0,0.6,-0.0,2.0,-0.65,0.4,-0.33,-0.56,0.0,0.0,0.0
1752779984840,293.0,-57.0,36.0,-6.0,-3.0,2.0,1.4,1.1,-1.3,-0.71,0.43,-0.31,-0.47,0.0,0.0,0.0
1752779984881,308.0,-50.0,44.0,-4.0,-5.0,3.0,2.8,-0.3,-1.1,-0.76,0.43,-0.3,-0.39,0.0,0.0,0.0
1752779984924,315.0,-44.0,47.0,-6.0,-2.0,6.0,0.3,3.4,1.1,-0.8,0.43,-0.26,-0.33,0.0,0.0,0.0
1752779984965,326.0,-36.0,50.0,-4.0,-6.0,8.0,2.5,-3.9,-0.3,-0.84,0.44,-0.21,-0.26,0.0,0.0,0.0
1752779984999,338.0,-29.0,53.0,-4.0,-6.0,3.0,-1.3,3.7,-0.6,-0.86,0.44,-0.2,-0.17,0.0,0.0,0.0
1752779985038,346.0,-22.0,54.0,-3.0,-4.0,9.0,1.3,2.0,3.3,-0.87,0.45,-0.16,-0.11,0.0,0.0,0.0
1752779985082,6.0,-12.0,58.0,2.0,-12.0,3.0,4.1,-3.8,-1.5,-0.87,0.46,-0.14,0.01,0.0,0.0,0.0
1752779985138,16.0,-8.0,63.0,1.0,-12.0,5.0,0.5,-1.3,2.3,-0.85,0.49,-0.15,0.11,0.0,0.0,0.0
1752779985383,15.0,-25.0,94.0,-4.0,-6.0,0.0,1.1,1.3,0.3,-0.68,0.61,-0.39,0.09,0.0,0.0,0.0
1752779985517,284.0,-21.0,161.0,-2.0,-2.0,-11.0,1.2,1.2,-2.3,-0.24,0.59,-0.77,0.02,0.0,0.0,0.0
1752779985560,286.0,-17.0,171.0,-3.0,2.0,-10.0,-0.1,2.6,-0.6,-0.17,0.59,-0.79,-0.03,0.0,0.0,0.0
1752779985598,287.0,-15.0,176.0,-2.0,2.0,-9.0,0.2,1.0,-0.3,-0.13,0.59,-0.8,-0.05,0.0,0.0,0.0
1752779985643,287.0,-13.0,178.0,-2.0,1.0,-11.0,0.2,1.3,-1.2,-0.1,0.59,-0.8,-0.05,0.0,0.0,0.0
1752779985686,287.0,-11.0,-178.0,-2.0,1.0,-9.0,0.1,0.5,0.4,-0.07,0.59,-0.8,-0.07,0.0,0.0,0.0
1752779985727,288.0,-11.0,-176.0,-2.0,1.0,-10.0,0.3,0.1,-0.3,-0.06,0.59,-0.8,-0.09,0.0,0.0,0.0
1752779985763,288.0,-11.0,-175.0,-2.0,2.0,-10.0,0.3,1.2,-0.4,-0.05,0.58,-0.8,-0.09,0.0,0.0,0.0
1752779985812,288.0,-11.0,-173.0,-2.0,2.0,-9.0,0.3,0.5,-0.4,-0.04,0.58,-0.81,-0.1,0.0,0.0,0.0
1752779985946,288.0,-11.0,-173.0,-2.0,2.0,-12.0,0.4,0.8,-2.5,-0.04,0.58,-0.81,-0.1,0.0,0.0,0.0
1752779985993,288.0,-13.0,-174.0,-2.0,1.0,-10.0,0.4,-0.1,-0.5,-0.06,0.58,-0.8,-0.1,0.0,0.0,0.0
1752779986027,288.0,-15.0,-175.0,-3.0,-0.0,-9.0,0.1,-1.1,0.5,-0.08,0.58,-0.8,-0.11,0.0,0.0,0.0
1752779986062,288.0,-19.0,-175.0,-2.0,1.0,-12.0,1.0,0.2,-1.0,-0.11,0.58,-0.8,-0.14,0.0,0.0,0.0
1752779986113,289.0,-25.0,-173.0,-3.0,1.0,-9.0,0.3,0.7,0.2,-0.14,0.57,-0.79,-0.17,0.0,0.0,0.0
1752779986146,294.0,-32.0,-169.0,-5.0,2.0,-7.0,0.6,0.4,1.2,-0.18,0.53,-0.8,-0.21,0.0,0.0,0.0
1752779986196,299.0,-38.0,-167.0,-6.0,2.0,-6.0,0.9,1.3,1.8,-0.22,0.51,-0.79,-0.25,0.0,0.0,0.0
1752779986242,303.0,-43.0,-166.0,-7.0,2.0,-8.0,0.5,1.2,-2.0,-0.26,0.47,-0.8,-0.26,0.0,0.0,0.0
1752779986296,280.0,-46.0,-166.0,-7.0,2.0,-7.0,0.3,0.0,-0.2,-0.3,0.44,-0.81,-0.27,0.0,0.0,0.0
1752779986330,285.0,-49.0,-167.0,-7.0,1.0,-6.0,0.5,-0.8,-0.2,-0.33,0.41,-0.81,-0.26,0.0,0.0,0.0
1752779986363,290.0,-53.0,-166.0,-8.0,2.0,-6.0,0.6,0.6,-0.3,-0.37,0.37,-0.81,-0.26,0.0,0.0,0.0
1752779986410,295.0,-57.0,-164.0,-8.0,2.0,-4.0,0.5,0.2,0.7,-0.41,0.34,-0.8,-0.26,0.0,0.0,0.0
1752779986547,300.0,-61.0,-164.0,-9.0,-0.0,-5.0,0.3,-0.4,-0.5,-0.45,0.31,-0.8,-0.26,0.0,0.0,0.0
1752779986698,334.0,-74.0,174.0,-9.0,-1.0,-3.0,0.3,-0.4,0.0,-0.59,0.2,-0.77,-0.14,0.0,0.0,0.0
1752779986833,359.0,-78.0,111.0,-9.0,-1.0,-4.0,0.8,0.6,-3.4,-0.67,0.17,-0.72,-0.02,0.0,0.0,0.0
1752779986879,1.0,-77.0,95.0,-9.0,-2.0,1.0,0.6,0.2,0.8,-0.7,0.15,-0.7,0.01,0.0,0.0,0.0
1752779986915,6.0,-75.0,77.0,-9.0,-4.0,1.0,0.5,0.2,-1.0,-0.73,0.13,-0.67,0.04,0.0,0.0,0.0
1752779986950,9.0,-73.0,63.0,-10.0,-2.0,2.0,0.5,0.3,0.0,-0.75,0.12,-0.65,0.06,0.0,0.0,0.0
1752779986997,13.0,-70.0,51.0,-9.0,-3.0,2.0,0.6,-0.3,0.1,-0.77,0.11,-0.62,0.08,0.0,0.0,0.0
1752779987033,14.0,-67.0,45.0,-9.0,-2.0,3.0,0.1,0.6,-0.1,-0.79,0.11,-0.6,0.09,0.0,0.0,0.0
1752779987080,15.0,-64.0,40.0,-8.0,-3.0,5.0,0.5,-0.1,1.5,-0.81,0.1,-0.56,0.11,0.0,0.0,0.0
1752779987116,18.0,-60.0,36.0,-8.0,-3.0,4.0,0.0,0.0,0.0,-0.83,0.1,-0.54,0.13,0.0,0.0,0.0
1752779987149,20.0,-57.0,35.0,-8.0,-2.0,4.0,-0.4,0.8,0.5,-0.84,0.09,-0.52,0.15,0.0,0.0,0.0
1752779987196,24.0,-54.0,33.0,-7.0,-3.0,5.0,0.2,0.1,-0.1,-0.85,0.08,-0.5,0.18,0.0,0.0,0.0
1752779987233,29.0,-50.0,32.0,-7.0,-2.0,5.0,0.1,1.7,-0.7,-0.85,0.09,-0.47,0.21,0.0,0.0,0.0
1752779987283,32.0,-47.0,32.0,-7.0,-2.0,6.0,0.2,2.0,0.2,-0.85,0.08,-0.45,0.25,0.0,0.0,0.0
1752779987325,38.0,-43.0,32.0,-6.0,-5.0,6.0,0.0,0.0,-0.8,-0.85,0.08,-0.43,0.3,0.0,0.0,0.0
1752779987352,44.0,-40.0,33.0,-6.0,-2.0,6.0,0.3,1.5,-0.2,-0.84,0.08,-0.42,0.34,0.0,0.0,0.0
1752779987398,51.0,-36.0,34.0,-5.0,-4.0,7.0,0.8,0.3,-0.1,-0.83,0.09,-0.4,0.38,0.0,0.0,0.0
1752779987433,55.0,-33.0,35.0,-5.0,-6.0,7.0,0.2,-0.9,0.4,-0.82,0.09,-0.39,0.41,0.0,0.0,0.0
1752779987474,56.0,-32.0,36.0,-6.0,-2.0,8.0,-0.3,2.6,1.6,-0.81,0.1,-0.38,0.43,0.0,0.0,0.0
1752779987515,63.0,-31.0,34.0,-5.0,-6.0,6.0,0.2,-3.3,-0.9,-0.79,0.07,-0.38,0.48,0.0,0.0,0.0
1752779987550,70.0,-29.0,33.0,-5.0,-6.0,9.0,-0.2,0.6,2.3,-0.76,0.06,-0.36,0.54,0.0,0.0,0.0
1752779987592,75.0,-29.0,33.0,-4.0,-2.0,4.0,0.3,2.2,-3.3,-0.74,0.05,-0.36,0.56,0.0,0.0,0.0
1752779987635,81.0,-27.0,31.0,-4.0,-6.0,8.0,0.0,-1.8,0.7,-0.73,0.04,-0.35,0.59,0.0,0.0,0.0
1752779987675,82.0,-25.0,31.0,-4.0,-5.0,8.0,-0.0,0.1,0.2,-0.71,0.04,-0.33,0.62,0.0,0.0,0.0
1752779987719,86.0,-24.0,32.0,-5.0,-1.0,7.0,-0.5,2.0,0.0,-0.69,0.04,-0.33,0.64,0.0,0.0,0.0
1752779987754,91.0,-23.0,29.0,-4.0,-5.0,8.0,0.0,-0.2,-0.1,-0.67,0.02,-0.32,0.67,0.0,0.0,0.0
1752779987800,94.0,-21.0,29.0,-3.0,-5.0,10.0,0.1,-0.6,1.8,-0.65,0.02,-0.31,0.69,0.0,0.0,0.0
1752779987834,96.0,-21.0,33.0,-4.0,-3.0,8.0,-0.4,2.4,0.8,-0.64,0.03,-0.32,0.7,0.0,0.0,0.0
1752779987881,98.0,-23.0,38.0,-3.0,-6.0,5.0,1.3,-0.8,-1.0,-0.62,0.04,-0.36,0.7,0.0,0.0,0.0
1752779987934,102.0,-21.0,38.0,-3.0,-6.0,11.0,-0.2,-1.6,5.6,-0.59,0.04,-0.36,0.72,0.0,0.0,0.0
1752779987968,105.0,-22.0,45.0,-3.0,-5.0,8.0,0.6,2.4,-0.7,-0.56,0.06,-0.41,0.72,0.0,0.0,0.0
1752779988001,108.0,-25.0,55.0,-4.0,-6.0,5.0,0.6,0.8,0.3,-0.51,0.06,-0.49,0.7,0.0,0.0,0.0
1752779988052,114.0,-25.0,65.0,-3.0,-9.0,8.0,0.7,-0.3,4.4,-0.47,0.06,-0.54,0.7,0.0,0.0,0.0
1752779988294,126.0,-22.0,108.0,-1.0,-3.0,-9.0,1.7,2.6,-1.2,-0.41,0.07,-0.61,0.67,0.0,0.0,0.0
1752779988337,360.0,-18.0,160.0,-2.0,1.0,-12.0,0.8,3.8,-2.6,-0.16,0.01,-0.97,0.19,0.0,0.0,0.0
1752779988479,3.0,-17.0,169.0,-2.0,5.0,-13.0,0.3,2.4,-3.6,-0.15,-0.03,-0.98,0.1,0.0,0.0,0.0
1752779988522,11.0,-16.0,-166.0,-3.0,4.0,-9.0,-0.2,1.8,0.1,-0.16,-0.09,-0.98,-0.11,0.0,0.0,0.0
1752779988656,8.0,-22.0,-172.0,-3.0,3.0,-10.0,0.5,1.8,-0.5,-0.17,-0.1,-0.97,-0.11,0.0,0.0,0.0
1752779988707,7.0,-24.0,-179.0,-3.0,-0.0,-10.0,1.5,-0.1,-1.0,-0.21,-0.06,-0.98,-0.01,0.0,0.0,0.0
1752779988737,5.0,-29.0,174.0,-4.0,-0.0,-8.0,0.5,1.0,0.2,-0.24,-0.05,-0.97,0.04,0.0,0.0,0.0
1752779988788,4.0,-32.0,169.0,-5.0,-1.0,-6.0,0.5,1.2,1.3,-0.27,-0.04,-0.96,0.1,0.0,0.0,0.0
1752779988824,2.0,-37.0,158.0,-5.0,-3.0,-7.0,0.8,0.2,-0.2,-0.32,-0.02,-0.94,0.15,0.0,0.0,0.0
1752779988967,81.0,-43.0,116.0,-5.0,-5.0,-3.0,1.6,1.0,0.8,-0.44,0.04,-0.81,0.38,0.0,0.0,0.0
1752779989007,85.0,-43.0,101.0,-6.0,-8.0,3.0,0.7,-0.5,1.6,-0.49,0.06,-0.75,0.44,0.0,0.0,0.0
1752779989061,87.0,-41.0,88.0,-5.0,-7.0,-1.0,1.1,0.4,-1.4,-0.51,0.07,-0.71,0.48,0.0,0.0,0.0
1752779989193,87.0,-39.0,76.0,-5.0,-7.0,4.0,0.9,0.0,0.9,-0.55,0.07,-0.65,0.52,0.0,0.0,0.0
1752779989244,73.0,-34.0,60.0,-5.0,-8.0,6.0,0.5,-1.3,1.1,-0.67,0.14,-0.53,0.5,0.0,0.0,0.0
1752779989388,71.0,-32.0,59.0,-5.0,-8.0,4.0,-0.5,0.1,0.3,-0.69,0.17,-0.51,0.49,0.0,0.0,0.0
1752779989424,61.0,-33.0,57.0,-6.0,-8.0,5.0,-0.5,-1.4,1.4,-0.73,0.19,-0.49,0.44,0.0,0.0,0.0
1752779989466,58.0,-34.0,57.0,-5.0,-9.0,5.0,0.8,-2.2,0.1,-0.74,0.2,-0.49,0.42,0.0,0.0,0.0
1752779989506,52.0,-39.0,62.0,-5.0,-9.0,4.0,1.3,-2.0,0.5,-0.74,0.21,-0.51,0.38,0.0,0.0,0.0
1752779989647,8.0,-75.0,76.0,-9.0,-2.0,-1.0,0.3,0.2,-1.0,-0.75,0.22,-0.54,0.31,0.0,0.0,0.0
1752779989688,0.0,-83.0,81.0,-8.0,-4.0,0.0,1.7,-3.2,0.2,-0.72,0.1,-0.69,0.01,0.0,0.0,0.0
1752779989729,352.0,-90.0,0.0,-9.0,2.0,-1.0,0.8,0.8,-1.0,-0.71,0.05,-0.7,-0.05,0.0,0.0,0.0
1752779989768,339.0,-78.0,-97.0,-8.0,4.0,-1.0,1.4,1.3,0.7,-0.69,-0.01,-0.72,-0.13,0.0,0.0,0.0
1752779989807,330.0,-70.0,-92.0,-9.0,7.0,-1.0,1.3,1.8,-2.7,-0.68,-0.06,-0.71,-0.18,0.0,0.0,0.0
1752779989847,325.0,-63.0,-92.0,-8.0,6.0,-0.0,0.9,1.8,-0.3,-0.67,-0.11,-0.71,-0.2,0.0,0.0,0.0
1752779989889,323.0,-58.0,-91.0,-8.0,6.0,1.0,0.5,1.2,1.0,-0.67,-0.15,-0.7,-0.22,0.0,0.0,0.0
1752779989934,323.0,-57.0,-90.0,-7.0,5.0,1.0,1.3,-0.1,0.6,-0.67,-0.18,-0.68,-0.22,0.0,0.0,0.0
1752779989969,322.0,-55.0,-89.0,-7.0,7.0,-1.0,0.8,2.4,-0.7,-0.67,-0.19,-0.68,-0.23,0.0,0.0,0.0
1752779990008,320.0,-53.0,-89.0,-7.0,8.0,1.0,0.5,2.1,0.7,-0.67,-0.21,-0.67,-0.24,0.0,0.0,0.0
1752779990052,321.0,-53.0,-90.0,-7.0,6.0,0.0,0.9,0.1,0.2,-0.67,-0.21,-0.67,-0.24,0.0,0.0,0.0
1752779990099,324.0,-55.0,-94.0,-7.0,9.0,-1.0,0.9,3.0,-0.1,-0.66,-0.21,-0.69,-0.22,0.0,0.0,0.0
1752779990135,328.0,-57.0,-98.0,-7.0,10.0,-0.0,1.5,5.8,0.8,-0.66,-0.21,-0.7,-0.19,0.0,0.0,0.0
1752779990171,341.0,-67.0,-109.0,-7.0,3.0,-2.0,2.0,-2.1,-0.3,-0.65,-0.17,-0.73,-0.11,0.0,0.0,0.0
1752779990222,358.0,-77.0,-138.0,-8.0,-1.0,-1.0,0.9,4.4,1.6,-0.65,-0.11,-0.76,-0.01,0.0,0.0,0.0
1752779990247,7.0,-81.0,-176.0,-9.0,5.0,3.0,1.7,-0.6,1.0,-0.65,-0.05,-0.76,0.04,0.0,0.0,0.0
1752779990392,29.0,-69.0,127.0,-6.0,-6.0,-2.0,0.9,0.2,-0.0,-0.61,0.02,-0.78,0.14,0.0,0.0,0.0
1752779990434,65.0,-44.0,105.0,-6.0,-9.0,-2.0,0.5,-1.7,-0.0,-0.54,0.16,-0.75,0.34,0.0,0.0,0.0
1752779990478,73.0,-39.0,101.0,-6.0,-6.0,-1.0,0.0,1.6,0.1,-0.52,0.19,-0.74,0.39,0.0,0.0,0.0
1752779990509,81.0,-33.0,98.0,-5.0,-7.0,-1.0,-0.2,0.5,-0.3,-0.5,0.21,-0.72,0.43,0.0,0.0,0.0
1752779990560,91.0,-25.0,94.0,-4.0,-9.0,-0.0,0.4,0.1,0.3,-0.48,0.23,-0.7,0.48,0.0,0.0,0.0
1752779990597,98.0,-20.0,91.0,-2.0,-9.0,-0.0,0.5,-0.1,-0.0,-0.46,0.25,-0.67,0.52,0.0,0.0,0.0
1752779990844,117.0,-2.0,76.0,1.0,-10.0,3.0,0.1,-0.5,-0.3,-0.41,0.3,-0.55,0.67,0.0,0.0,0.0
1752779990885,120.0,4.0,70.0,1.0,-8.0,2.0,0.0,1.2,-1.1,-0.41,0.32,-0.48,0.71,0.0,0.0,0.0
1752779990922,120.0,5.0,69.0,1.0,-10.0,4.0,-0.2,0.6,-0.2,-0.41,0.33,-0.46,0.72,0.0,0.0,0.0
1752779990970,121.0,6.0,68.0,1.0,-8.0,3.0,-0.4,2.2,-1.5,-0.41,0.33,-0.45,0.72,0.0,0.0,0.0
1752779991008,122.0,9.0,67.0,2.0,-10.0,4.0,-0.0,-1.0,0.0,-0.41,0.34,-0.44,0.73,0.0,0.0,0.0
1752779991042,122.0,11.0,66.0,2.0,-10.0,4.0,-0.3,-0.9,0.0,-0.41,0.35,-0.42,0.73,0.0,0.0,0.0
1752779991088,122.0,12.0,65.0,2.0,-9.0,5.0,-0.1,-0.8,0.4,-0.41,0.36,-0.4,0.73,0.0,0.0,0.0
1752779991123,122.0,13.0,65.0,2.0,-10.0,5.0,-0.2,-0.5,0.1,-0.41,0.37,-0.39,0.74,0.0,0.0,0.0
1752779991159,122.0,14.0,65.0,2.0,-7.0,2.0,0.0,0.6,-1.9,-0.41,0.37,-0.39,0.74,0.0,0.0,0.0
1752779991204,122.0,15.0,64.0,2.0,-10.0,5.0,-0.1,-1.7,1.0,-0.41,0.38,-0.38,0.74,0.0,0.0,0.0
1752779991248,122.0,16.0,64.0,2.0,-7.0,5.0,-0.5,0.4,0.1,-0.41,0.39,-0.37,0.74,0.0,0.0,0.0
1752779991289,121.0,15.0,64.0,2.0,-7.0,2.0,-0.1,0.3,-1.4,-0.41,0.39,-0.37,0.73,0.0,0.0,0.0
1752779991340,121.0,16.0,64.0,3.0,-10.0,5.0,-0.0,-1.3,0.4,-0.41,0.39,-0.37,0.74,0.0,0.0,0.0
1752779991377,121.0,15.0,64.0,2.0,-8.0,5.0,-0.5,0.9,0.3,-0.42,0.39,-0.37,0.73,0.0,0.0,0.0
1752779991423,120.0,14.0,64.0,2.0,-8.0,3.0,-0.2,-0.2,-1.0,-0.42,0.38,-0.38,0.73,0.0,0.0,0.0
1752779991464,120.0,13.0,64.0,2.0,-9.0,4.0,-0.6,1.1,0.1,-0.42,0.38,-0.38,0.73,0.0,0.0,0.0
1752779991493,119.0,12.0,65.0,2.0,-9.0,4.0,-0.3,-0.5,-0.3,-0.43,0.38,-0.39,0.72,0.0,0.0,0.0
1752779991633,118.0,12.0,66.0,1.0,-10.0,4.0,-0.3,-1.2,0.9,-0.43,0.38,-0.4,0.72,0.0,0.0,0.0
1752779991673,112.0,3.0,71.0,0.0,-8.0,2.0,-0.4,1.3,-1.1,-0.45,0.35,-0.46,0.68,0.0,0.0,0.0
1752779991710,111.0,0.0,73.0,-0.0,-8.0,2.0,-0.4,0.3,-0.2,-0.46,0.34,-0.49,0.66,0.0,0.0,0.0
1752779991750,110.0,-1.0,74.0,-0.0,-11.0,3.0,-0.0,-1.8,0.5,-0.46,0.33,-0.5,0.65,0.0,0.0,0.0
1752779992103,94.0,-24.0,87.0,-6.0,-7.0,-1.0,-0.2,0.8,-0.8,-0.5,0.23,-0.64,0.54,0.0,0.0,0.0
1752779992147,79.0,-37.0,98.0,-6.0,-6.0,-2.0,-0.1,1.5,-0.5,-0.51,0.18,-0.72,0.43,0.0,0.0,0.0
1752779992198,75.0,-39.0,100.0,-7.0,-4.0,-2.0,-0.2,2.9,-0.6,-0.52,0.16,-0.73,0.4,0.0,0.0,0.0
1752779992434,113.0,1.0,76.0,1.0,-11.0,2.0,1.0,-3.1,-0.2,-0.53,0.16,-0.74,0.38,0.0,0.0,0.0
1752779992474,116.0,7.0,72.0,1.0,-9.0,4.0,0.4,-0.3,-0.1,-0.43,0.37,-0.46,0.68,0.0,0.0,0.0
1752779992516,117.0,11.0,69.0,2.0,-10.0,5.0,0.3,-1.3,1.3,-0.43,0.39,-0.42,0.7,0.0,0.0,0.0
1752779992552,118.0,14.0,67.0,3.0,-9.0,3.0,0.5,-0.6,-0.0,-0.43,0.4,-0.38,0.71,0.0,0.0,0.0
1752779992702,118.0,17.0,65.0,3.0,-8.0,4.0,-0.6,-0.3,-0.2,-0.43,0.41,-0.36,0.72,0.0,0.0,0.0
1752779992739,118.0,21.0,62.0,3.0,-9.0,5.0,-0.5,-1.0,0.5,-0.44,0.43,-0.3,0.73,0.0,0.0,0.0
1752779992787,117.0,22.0,61.0,3.0,-9.0,5.0,-0.5,-0.7,0.5,-0.44,0.44,-0.29,0.73,0.0,0.0,0.0
1752779992821,117.0,22.0,61.0,3.0,-7.0,4.0,-0.4,1.6,-1.2,-0.45,0.44,-0.29,0.72,0.0,0.0,0.0
1752779992858,116.0,22.0,61.0,3.0,-8.0,4.0,-0.6,0.1,0.2,-0.45,0.44,-0.29,0.72,0.0,0.0,0.0
1752779992907,116.0,22.0,61.0,3.0,-8.0,4.0,-0.5,0.0,-0.3,-0.45,0.44,-0.28,0.72,0.0,0.0,0.0
1752779992944,116.0,22.0,61.0,3.0,-8.0,5.0,-0.6,-0.2,0.4,-0.45,0.44,-0.28,0.72,0.0,0.0,0.0
1752779992985,116.0,23.0,61.0,3.0,-8.0,5.0,-0.5,-0.2,0.6,-0.45,0.44,-0.28,0.72,0.0,0.0,0.0
1752779993031,116.0,22.0,61.0,3.0,-7.0,4.0,-0.3,1.0,-1.7,-0.45,0.44,-0.28,0.72,0.0,0.0,0.0
1752779993064,116.0,22.0,61.0,3.0,-8.0,4.0,-0.3,-0.0,-0.9,-0.45,0.44,-0.29,0.72,0.0,0.0,0.0
1752779993106,116.0,22.0,61.0,3.0,-8.0,4.0,-0.5,-0.1,-0.1,-0.45,0.44,-0.28,0.72,0.0,0.0,0.0
1752779993150,116.0,22.0,60.0,3.0,-9.0,5.0,-0.4,-0.6,0.1,-0.45,0.44,-0.28,0.72,0.0,0.0,0.0
1752779993186,116.0,22.0,61.0,3.0,-8.0,4.0,-0.6,0.0,-0.3,-0.45,0.43,-0.29,0.72,0.0,0.0,0.0
1752779993236,115.0,21.0,61.0,3.0,-7.0,4.0,-0.6,0.8,-0.7,-0.46,0.43,-0.29,0.72,0.0,0.0,0.0
1752779993269,115.0,20.0,61.0,3.0,-9.0,5.0,-0.5,-0.3,0.0,-0.46,0.43,-0.3,0.72,0.0,0.0,0.0
1752779993320,114.0,19.0,61.0,3.0,-9.0,4.0,-0.2,-0.6,-0.1,-0.46,0.43,-0.3,0.72,0.0,0.0,0.0
1752779993369,113.0,17.0,62.0,2.0,-8.0,3.0,-0.3,0.6,-1.0,-0.47,0.42,-0.31,0.71,0.0,0.0,0.0
1752779993387,112.0,16.0,62.0,3.0,-10.0,6.0,0.3,-1.6,1.3,-0.47,0.41,-0.33,0.71,0.0,0.0,0.0
1752779993427,110.0,13.0,63.0,2.0,-10.0,7.0,0.0,-0.4,2.0,-0.49,0.41,-0.34,0.69,0.0,0.0,0.0
1752779993463,108.0,8.0,65.0,2.0,-10.0,3.0,1.0,-1.6,-1.0,-0.49,0.38,-0.38,0.68,0.0,0.0,0.0
1752779993504,106.0,3.0,68.0,1.0,-12.0,4.0,0.9,-3.1,1.7,-0.5,0.36,-0.43,0.66,0.0,0.0,0.0
1752779993552,98.0,-7.0,74.0,-0.0,-11.0,5.0,1.8,-0.9,2.7,-0.52,0.34,-0.49,0.62,0.0,0.0,0.0
1752779993901,59.0,-45.0,112.0,-4.0,6.0,-4.0,2.0,1.8,2.6,-0.53,0.3,-0.58,0.54,0.0,0.0,0.0
1752779993943,286.0,-36.0,-142.0,-3.0,6.0,-4.0,1.8,0.2,2.5,-0.34,-0.04,-0.9,-0.26,0.0,0.0,0.0
1752779993977,259.0,-26.0,-135.0,-2.0,8.0,-7.0,1.8,1.4,-0.4,-0.27,-0.07,-0.9,-0.33,0.0,0.0,0.0
1752779994026,235.0,-16.0,-131.0,-1.0,9.0,-6.0,1.7,2.4,-0.7,-0.2,-0.1,-0.9,-0.38,0.0,0.0,0.0
1752779994057,214.0,-8.0,-128.0,0.0,11.0,-8.0,1.2,3.4,-1.4,-0.13,-0.11,-0.89,-0.42,0.0,0.0,0.0
1752779994199,0.0,-2.0,-135.0,3.0,17.0,-8.0,3.7,10.2,-0.6,-0.02,-0.02,-0.92,-0.39,0.0,0.0,0.0
1752779994248,349.0,-3.0,-139.0,6.0,11.0,-9.0,6.6,5.5,-0.6,0.01,0.09,-0.93,-0.35,0.0,0.0,0.0
1752779994285,332.0,-8.0,-160.0,3.0,-5.0,-3.0,4.3,-9.8,7.1,-0.03,0.23,-0.95,-0.19,0.0,0.0,0.0
1752779994319,318.0,-11.0,175.0,0.0,-11.0,-10.0,3.0,-2.2,-3.8,-0.1,0.36,-0.93,0.0,0.0,0.0,0.0
1752779994355,314.0,-9.0,162.0,1.0,-12.0,-8.0,3.4,-9.7,2.0,-0.13,0.38,-0.91,0.11,0.0,0.0,0.0
1752779994501,313.0,-6.0,139.0,4.0,0.0,0.0,9.4,2.1,8.3,-0.18,0.38,-0.87,0.26,0.0,0.0,0.0
1752779994551,1.0,-34.0,-178.0,7.0,11.0,1.0,12.5,8.6,9.3,-0.29,-0.0,-0.96,-0.01,0.0,0.0,0.0
1752779994579,277.0,-27.0,-141.0,5.0,39.0,11.0,0.0,32.2,18.8,-0.29,-0.16,-0.91,-0.26,0.0,0.0,0.0
1752779994618,236.0,-12.0,-123.0,7.0,31.0,-12.0,10.5,16.6,-9.6,-0.23,-0.2,-0.85,-0.43,0.0,0.0,0.0
1752779994661,236.0,-17.0,-129.0,3.0,17.0,7.0,7.2,7.9,13.3,-0.21,-0.09,-0.89,-0.39,0.0,0.0,0.0
1752779994801,326.0,-12.0,152.0,5.0,-30.0,-17.0,7.4,-25.7,-8.4,-0.17,0.3,-0.92,0.19,0.0,0.0,0.0
1752779994850,336.0,-24.0,160.0,5.0,-8.0,-5.0,10.1,-5.3,3.5,-0.22,0.23,-0.94,0.15,0.0,0.0,0.0
1752779994891,352.0,-40.0,-174.0,6.0,2.0,0.0,14.4,-2.0,13.6,-0.32,0.1,-0.94,-0.02,0.0,0.0,0.0
1752779994933,296.0,-42.0,-137.0,12.0,21.0,26.0,12.5,25.0,34.2,-0.41,-0.07,-0.87,-0.26,0.0,0.0,0.0
1752779994967,257.0,-26.0,-101.0,5.0,40.0,2.0,13.1,30.7,-4.8,-0.4,-0.17,-0.75,-0.5,0.0,0.0,0.0
1752779995016,261.0,-37.0,-116.0,8.0,5.0,22.0,14.8,-1.2,26.6,-0.35,-0.03,-0.79,-0.5,0.0,0.0,0.0
1752779995062,331.0,-43.0,-172.0,12.0,-36.0,-10.0,18.2,-35.3,-2.4,-0.37,0.17,-0.88,-0.22,0.0,0.0,0.0
1752779995100,326.0,-21.0,162.0,9.0,-38.0,-31.0,12.5,-34.8,-22.2,-0.23,0.29,-0.93,0.04,0.0,0.0,0.0
1752779995133,331.0,-31.0,164.0,2.0,-8.0,2.0,7.9,-7.0,9.9,-0.25,0.26,-0.92,0.1,0.0,0.0,0.0
1752779995181,330.0,-45.0,-173.0,3.0,4.0,-6.0,15.6,-0.9,-0.5,-0.37,0.13,-0.91,-0.1,0.0,0.0,0.0
1752779995216,301.0,-48.0,-140.0,16.0,8.0,14.0,22.8,9.4,24.8,-0.43,-0.01,-0.87,-0.24,0.0,0.0,0.0
1752779995263,265.0,-25.0,-98.0,0.0,40.0,13.0,4.0,30.5,14.0,-0.46,-0.22,-0.74,-0.43,0.0,0.0,0.0
1752779995300,248.0,-26.0,-101.0,4.0,6.0,9.0,8.1,-3.3,13.3,-0.36,-0.11,-0.76,-0.53,0.0,0.0,0.0
1752779995448,58.0,-31.0,133.0,3.0,-2.0,-4.0,9.7,2.5,2.7,-0.4,0.32,-0.83,0.22,0.0,0.0,0.0
1752779995485,351.0,-49.0,175.0,5.0,3.0,-5.0,12.5,2.7,1.5,-0.41,0.18,-0.89,0.01,0.0,0.0,0.0
1752779995526,311.0,-53.0,-142.0,5.0,34.0,17.0,12.8,29.1,21.2,-0.45,0.04,-0.88,-0.16,0.0,0.0,0.0
1752779995566,278.0,-36.0,-108.0,4.0,39.0,2.0,9.1,31.1,5.1,-0.48,-0.15,-0.78,-0.37,0.0,0.0,0.0
1752779995613,283.0,-39.0,-138.0,7.0,2.0,-4.0,12.2,-3.1,4.3,-0.37,-0.06,-0.86,-0.34,0.0,0.0,0.0
1752779995655,339.0,-38.0,165.0,7.0,-9.0,3.0,12.7,-5.9,9.8,-0.35,0.14,-0.93,-0.03,0.0,0.0,0.0
1752779995694,84.0,-26.0,132.0,4.0,-25.0,16.0,6.6,-16.1,19.3,-0.33,0.23,-0.86,0.3,0.0,0.0,0.0
1752779995844,84.0,-33.0,127.0,6.0,-1.0,3.0,14.5,-0.3,17.1,-0.34,0.29,-0.72,0.52,0.0,0.0,0.0
1752779995870,7.0,-49.0,176.0,3.0,17.0,16.0,6.4,22.8,18.3,-0.42,0.0,-0.91,0.03,0.0,0.0,0.0
1752779995919,282.0,-38.0,-129.0,0.0,39.0,-6.0,3.4,31.4,3.3,-0.39,-0.09,-0.86,-0.32,0.0,0.0,0.0
1752779995964,283.0,-37.0,-131.0,-2.0,15.0,-8.0,9.9,3.8,-4.3,-0.38,-0.11,-0.86,-0.33,0.0,0.0,0.0
1752779996009,355.0,-49.0,-180.0,4.0,2.0,9.0,11.3,3.7,14.9,-0.39,0.02,-0.92,-0.09,0.0,0.0,0.0
1752779996053,43.0,-50.0,139.0,9.0,-14.0,19.0,12.6,-9.4,22.9,-0.47,0.11,-0.85,0.19,0.0,0.0,0.0
1752779996097,98.0,-22.0,88.0,6.0,-26.0,17.0,8.9,-20.3,13.9,-0.47,0.23,-0.66,0.54,0.0,0.0,0.0
1752779996140,118.0,-9.0,82.0,7.0,-38.0,10.0,7.8,-8.0,3.2,-0.39,0.24,-0.61,0.65,0.0,0.0,0.0
1752779996171,106.0,-23.0,108.0,6.0,3.0,-8.0,10.2,10.1,-1.7,-0.36,0.19,-0.78,0.48,0.0,0.0,0.0
1752779996215,37.0,-45.0,155.0,3.0,1.0,14.0,10.4,2.9,20.2,-0.38,0.09,-0.9,0.2,0.0,0.0,0.0
1752779996259,316.0,-44.0,-154.0,-2.0,27.0,-8.0,4.4,22.5,-1.3,-0.41,-0.01,-0.91,-0.09,0.0,0.0,0.0
1752779996295,284.0,-34.0,-140.0,-8.0,34.0,-3.0,-2.7,28.8,3.6,-0.34,-0.09,-0.9,-0.26,0.0,0.0,0.0
1752779996335,299.0,-38.0,-148.0,-1.0,4.0,-11.0,5.3,-1.9,-2.0,-0.35,-0.06,-0.91,-0.21,0.0,0.0,0.0
1752779996376,351.0,-45.0,-178.0,-2.0,2.0,1.0,7.4,2.3,7.4,-0.38,0.03,-0.92,-0.03,0.0,0.0,0.0
1752779996424,51.0,-45.0,141.0,1.0,-8.0,10.0,6.1,-3.9,16.4,-0.43,0.11,-0.88,0.2,0.0,0.0,0.0
1752779996456,99.0,-26.0,100.0,2.0,-22.0,6.0,5.9,-13.4,6.8,-0.43,0.17,-0.76,0.45,0.0,0.0,0.0
1752779996502,111.0,-18.0,91.0,0.0,-29.0,8.0,3.2,-19.5,8.7,-0.39,0.2,-0.69,0.58,0.0,0.0,0.0
1752779996535,108.0,-21.0,98.0,3.0,-16.0,2.0,8.4,-1.0,5.8,-0.39,0.19,-0.73,0.53,0.0,0.0,0.0
1752779996574,74.0,-39.0,126.0,5.0,-4.0,6.0,13.4,1.2,15.8,-0.42,0.12,-0.84,0.31,0.0,0.0,0.0
1752779996612,4.0,-52.0,175.0,2.0,14.0,9.0,7.5,17.8,9.5,-0.44,0.03,-0.9,0.02,0.0,0.0,0.0
1752779996764,11.0,-51.0,173.0,4.0,1.0,6.0,11.6,3.4,11.7,-0.41,-0.02,-0.91,-0.02,0.0,0.0,0.0
1752779996807,54.0,-49.0,133.0,3.0,-7.0,14.0,9.4,-0.1,17.1,-0.47,0.08,-0.85,0.24,0.0,0.0,0.0
1752779996940,98.0,-28.0,107.0,4.0,-12.0,5.0,12.2,-1.6,9.5,-0.47,0.16,-0.73,0.48,0.0,0.0,0.0
1752779996983,47.0,-48.0,145.0,11.0,-4.0,8.0,19.5,3.5,19.1,-0.43,0.06,-0.88,0.19,0.0,0.0,0.0
1752779997115,341.0,-46.0,-168.0,-3.0,3.0,-1.0,4.3,2.4,5.3,-0.43,-0.09,-0.89,-0.15,0.0,0.0,0.0
1752779997159,38.0,-50.0,151.0,0.0,-7.0,6.0,7.5,-3.0,10.5,-0.43,0.03,-0.9,0.09,0.0,0.0,0.0
1752779997298,106.0,-23.0,97.0,2.0,-24.0,5.0,6.1,-15.7,6.4,-0.46,0.11,-0.82,0.32,0.0,0.0,0.0
1752779997346,75.0,-41.0,121.0,3.0,-4.0,4.0,9.9,2.0,10.7,-0.43,0.13,-0.8,0.4,0.0,0.0,0.0
1752779997476,11.0,-31.0,-159.0,-4.0,1.0,-8.0,0.8,-1.9,0.1,-0.3,-0.1,-0.94,-0.16,0.0,0.0,0.0
1752779997615,3.0,-7.0,-170.0,0.0,-1.0,-8.0,1.4,-2.1,1.2,-0.27,-0.08,-0.96,-0.06,0.0,0.0,0.0
1752779997661,1.0,-5.0,-174.0,-1.0,-2.0,-5.0,-0.8,-3.3,4.4,-0.06,-0.01,-1.0,-0.06,0.0,0.0,0.0
1752779997697,358.0,0.0,-174.0,3.0,0.0,-16.0,1.7,-1.1,-5.9,0.01,0.02,-1.0,-0.05,0.0,0.0,0.0
1752779997736,355.0,9.0,-172.0,3.0,2.0,-15.0,0.7,-0.8,-3.2,0.09,0.05,-0.99,-0.07,0.0,0.0,0.0
1752779997776,352.0,10.0,-173.0,2.0,-3.0,-6.0,-1.2,-6.3,3.2,0.09,0.07,-0.99,-0.06,0.0,0.0,0.0
1752779997829,350.0,11.0,-173.0,-0.0,-3.0,-9.0,-0.1,-3.8,-4.3,0.1,0.09,-0.99,-0.05,0.0,0.0,0.0
1752779997967,356.0,20.0,-164.0,2.0,1.0,-9.0,-1.2,-2.0,-0.1,0.18,0.03,-0.97,-0.13,0.0,0.0,0.0
1752779998002,356.0,21.0,-163.0,3.0,2.0,-11.0,-1.1,-1.1,-2.0,0.19,0.03,-0.97,-0.14,0.0,0.0,0.0
1752779998054,356.0,23.0,-161.0,3.0,2.0,-11.0,-0.8,-0.5,-1.9,0.21,0.03,-0.97,-0.15,0.0,0.0,0.0
1752779998092,356.0,23.0,-160.0,3.0,3.0,-10.0,-1.0,-0.2,-1.3,0.21,0.03,-0.96,-0.16,0.0,0.0,0.0
1752779998128,357.0,23.0,-160.0,3.0,2.0,-9.0,-0.8,-1.4,-0.3,0.21,0.03,-0.97,-0.16,0.0,0.0,0.0
1752779998265,356.0,23.0,-160.0,3.0,2.0,-9.0,-0.8,-0.6,-0.4,0.21,0.03,-0.97,-0.15,0.0,0.0,0.0
1752779998318,357.0,20.0,-162.0,3.0,3.0,-9.0,-0.5,-0.2,-0.2,0.18,0.03,-0.97,-0.14,0.0,0.0,0.0
1752779998365,356.0,20.0,-162.0,3.0,2.0,-10.0,-0.4,-0.5,-0.7,0.18,0.03,-0.97,-0.15,0.0,0.0,0.0
1752779998502,355.0,21.0,-162.0,4.0,2.0,-10.0,-0.1,0.2,-1.3,0.19,0.04,-0.97,-0.14,0.0,0.0,0.0
1752779998549,353.0,26.0,-167.0,5.0,1.0,-11.0,-0.1,-1.0,-1.7,0.23,0.06,-0.97,-0.09,0.0,0.0,0.0
1752779998584,353.0,26.0,-167.0,4.0,1.0,-10.0,-0.6,-0.5,-0.9,0.23,0.06,-0.97,-0.09,0.0,0.0,0.0
1752779998620,353.0,25.0,-168.0,3.0,2.0,-9.0,-0.4,-0.5,0.0,0.22,0.06,-0.97,-0.08,0.0,0.0,0.0
1752779998667,352.0,24.0,-170.0,3.0,0.0,-9.0,-0.8,-1.3,-0.2,0.21,0.06,-0.97,-0.07,0.0,0.0,0.0
1752779998712,353.0,23.0,-171.0,3.0,-1.0,-9.0,-0.5,-1.8,0.0,0.21,0.06,-0.97,-0.06,0.0,0.0,0.0
1752779998755,354.0,23.0,-170.0,3.0,2.0,-9.0,-0.5,0.4,0.0,0.2,0.05,-0.98,-0.07,0.0,0.0,0.0
1752779998788,355.0,24.0,-170.0,4.0,1.0,-11.0,0.8,-0.7,-1.8,0.21,0.04,-0.97,-0.07,0.0,0.0,0.0
1752779998836,356.0,26.0,-175.0,4.0,-0.0,-10.0,0.1,-2.3,0.2,0.23,0.04,-0.97,-0.03,0.0,0.0,0.0
1752779998873,357.0,27.0,178.0,4.0,-2.0,-8.0,-0.7,-1.7,0.5,0.23,0.03,-0.97,0.02,0.0,0.0,0.0
1752779998920,358.0,27.0,176.0,3.0,-1.0,-4.0,-2.0,-0.6,4.9,0.23,0.02,-0.97,0.03,0.0,0.0,0.0
1752779998957,0.0,33.0,173.0,4.0,9.0,-12.0,8.5,6.4,-6.9,0.26,0.0,-0.96,0.05,0.0,0.0,0.0
1752779999005,358.0,43.0,169.0,8.0,-5.0,-6.0,1.1,-5.0,-1.9,0.35,-0.0,-0.93,0.07,0.0,0.0,0.0
1752779999039,334.0,45.0,171.0,7.0,-3.0,-9.0,0.0,-1.5,-1.8,0.38,0.06,-0.92,0.09,0.0,0.0,0.0
1752779999073,352.0,43.0,170.0,6.0,-2.0,-9.0,-0.3,-0.4,-2.4,0.37,0.07,-0.92,0.09,0.0,0.0,0.0
1752779999312,2.0,32.0,152.0,9.0,-9.0,-7.0,4.6,-4.2,0.6,0.35,0.05,-0.93,0.12,0.0,0.0,0.0
1752779999375,35.0,28.0,151.0,13.0,-4.0,-13.0,10.2,2.2,-6.2,0.31,-0.28,-0.9,0.14,0.0,0.0,0.0
1752779999420,57.0,29.0,154.0,17.0,7.0,-10.0,12.7,10.8,-2.2,0.32,-0.45,-0.83,0.06,0.0,0.0,0.0
1752779999439,73.0,21.0,164.0,11.0,21.0,-5.0,9.9,21.6,6.5,0.22,-0.58,-0.78,-0.0,0.0,0.0,0.0
1752779999476,72.0,0.0,172.0,3.0,20.0,6.0,3.9,16.9,14.0,0.04,-0.59,-0.81,0.06,0.0,0.0,0.0
1752779999516,49.0,-4.0,177.0,5.0,-4.0,-13.0,8.8,-5.8,-6.7,-0.02,-0.41,-0.91,0.04,0.0,0.0,0.0
1752779999560,20.0,8.0,162.0,10.0,-18.0,-15.0,9.6,-14.3,-6.0,0.1,-0.2,-0.97,0.11,0.0,0.0,0.0
1752779999707,35.0,-26.0,168.0,2.0,6.0,-7.0,6.9,7.8,-0.2,-0.01,-0.08,-0.97,0.22,0.0,0.0,0.0
1752779999756,48.0,-27.0,-178.0,-2.0,17.0,-7.0,1.9,18.2,1.2,-0.22,-0.4,-0.89,0.08,0.0,0.0,0.0
1752779999803,59.0,-29.0,-164.0,-5.0,26.0,-3.0,2.6,19.5,6.1,-0.27,-0.47,-0.84,0.02,0.0,0.0,0.0
1752779999940,13.0,-18.0,157.0,-3.0,-26.0,-3.0,-1.8,-27.4,7.6,-0.14,-0.11,-0.96,0.21,0.0,0.0,0.0
1752779999979,11.0,-22.0,151.0,-2.0,-21.0,-2.0,3.3,-13.1,5.1,-0.17,-0.09,-0.95,0.25,0.0,0.0,0.0
1752780000021,24.0,-28.0,160.0,2.0,-4.0,-4.0,7.2,-1.7,4.7,-0.2,-0.2,-0.94,0.2,0.0,0.0,0.0
1752780000065,46.0,-31.0,178.0,4.0,7.0,-4.0,9.0,6.5,4.2,-0.23,-0.35,-0.9,0.14,0.0,0.0,0.0
1752780000201,58.0,-28.0,-170.0,2.0,14.0,-14.0,5.5,11.5,-5.7,-0.25,-0.47,-0.85,0.04,0.0,0.0,0.0
1752780000249,43.0,-25.0,-170.0,6.0,8.0,-13.0,13.4,2.0,-1.5,-0.23,-0.35,-0.91,0.01,0.0,0.0,0.0
1752780000285,23.0,-29.0,167.0,8.0,-19.0,-5.0,12.1,-18.3,3.5,-0.23,-0.19,-0.94,0.15,0.0,0.0,0.0
1752780000318,96.0,-31.0,141.0,-4.0,-23.0,12.0,-2.1,-17.4,21.5,-0.27,-0.03,-0.91,0.3,0.0,0.0,0.0
1752780000367,93.0,-36.0,128.0,-5.0,-27.0,3.0,0.8,-20.8,8.0,-0.34,0.02,-0.87,0.36,0.0,0.0,0.0
1752780000421,89.0,-39.0,134.0,-0.0,-11.0,0.0,8.2,-2.0,4.5,-0.34,-0.04,-0.88,0.34,0.0,0.0,0.0
1752780000457,69.0,-45.0,156.0,4.0,-1.0,-2.0,10.0,1.2,4.9,-0.35,-0.17,-0.89,0.26,0.0,0.0,0.0
1752780000491,42.0,-42.0,176.0,1.0,6.0,-6.0,7.0,6.8,1.2,-0.32,-0.34,-0.87,0.15,0.0,0.0,0.0
1752780000532,55.0,-31.0,-169.0,-2.0,13.0,-11.0,2.8,8.7,-2.8,-0.28,-0.44,-0.85,0.05,0.0,0.0,0.0
1752780000574,62.0,-22.0,-165.0,-2.0,7.0,-11.0,0.5,6.3,-4.2,-0.23,-0.5,-0.83,-0.0,0.0,0.0,0.0
1752780000624,67.0,-18.0,-160.0,-6.0,12.0,-10.0,-2.8,8.5,-1.5,-0.22,-0.54,-0.81,-0.04,0.0,0.0,0.0
1752780000653,68.0,-19.0,-157.0,-5.0,9.0,-9.0,-1.8,5.7,-0.3,-0.24,-0.54,-0.8,-0.06,0.0,0.0,0.0
1752780000708,63.0,-22.0,-160.0,-4.0,6.0,-9.0,-0.5,3.4,0.4,-0.25,-0.51,-0.82,-0.05,0.0,0.0,0.0
1752780000741,57.0,-25.0,-164.0,-4.0,7.0,-8.0,0.8,3.3,0.2,-0.26,-0.46,-0.85,-0.01,0.0,0.0,0.0
1752780000789,49.0,-28.0,-170.0,-3.0,2.0,-9.0,3.0,2.1,-2.3,-0.26,-0.4,-0.88,0.03,0.0,0.0,0.0
1752780000825,37.0,-33.0,180.0,-3.0,-1.0,-7.0,3.0,-0.4,1.2,-0.26,-0.32,-0.91,0.07,0.0,0.0,0.0
1752780000871,27.0,-38.0,169.0,-2.0,-4.0,-4.0,3.7,-2.0,3.6,-0.29,-0.24,-0.92,0.14,0.0,0.0,0.0
1752780000908,66.0,-41.0,158.0,-2.0,-4.0,-8.0,4.5,-0.4,-1.8,-0.32,-0.15,-0.91,0.21,0.0,0.0,0.0
1752780000942,77.0,-42.0,143.0,-5.0,-6.0,-0.0,1.8,-2.5,3.1,-0.35,-0.07,-0.89,0.28,0.0,0.0,0.0
1752780000992,84.0,-41.0,129.0,-4.0,-8.0,-2.0,1.3,-1.0,3.0,-0.38,-0.01,-0.86,0.34,0.0,0.0,0.0
1752780001025,87.0,-40.0,117.0,-4.0,-7.0,-1.0,1.8,0.1,2.2,-0.41,0.05,-0.82,0.39,0.0,0.0,0.0
1752780001076,93.0,-36.0,100.0,-3.0,-8.0,1.0,2.7,0.5,1.5,-0.44,0.09,-0.77,0.45,0.0,0.0,0.0
1752780001314,98.0,-28.0,83.0,-5.0,-0.0,13.0,-0.3,2.7,4.9,-0.47,0.14,-0.68,0.55,0.0,0.0,0.0
1752780001366,99.0,-29.0,11.0,-4.0,4.0,8.0,1.2,4.8,-0.3,-0.62,-0.14,-0.23,0.73,0.0,0.0,0.0
1752780001425,100.0,-33.0,-5.0,-6.0,5.0,12.0,-1.2,5.7,4.7,-0.61,-0.24,-0.15,0.74,0.0,0.0,0.0
1752780001444,104.0,-36.0,-23.0,-6.0,9.0,14.0,0.8,4.8,5.5,-0.58,-0.35,-0.06,0.74,0.0,0.0,0.0
1752780001490,112.0,-48.0,-48.0,-3.0,5.0,6.0,4.8,-0.1,2.0,-0.49,-0.5,0.0,0.71,0.0,0.0,0.0
1752780001514,121.0,-59.0,-55.0,-4.0,6.0,6.0,5.0,2.3,3.5,-0.41,-0.58,-0.02,0.7,0.0,0.0,0.0
1752780001661,127.0,-67.0,-57.0,-6.0,1.0,-5.0,3.0,1.8,-1.5,-0.35,-0.62,-0.07,0.7,0.0,0.0,0.0
1752780001694,146.0,-63.0,168.0,-6.0,0.0,-4.0,2.2,1.8,1.2,-0.15,-0.79,-0.33,0.5,0.0,0.0,0.0
1752780001745,141.0,-54.0,172.0,-4.0,1.0,-9.0,4.0,-0.3,-2.9,-0.15,-0.81,-0.37,0.43,0.0,0.0,0.0
1752780001774,125.0,-44.0,175.0,-3.0,2.0,-10.0,3.1,2.3,-2.6,-0.15,-0.82,-0.43,0.35,0.0,0.0,0.0
1752780001821,115.0,-36.0,-168.0,-6.0,7.0,-9.0,0.3,4.0,-2.2,-0.21,-0.81,-0.49,0.24,0.0,0.0,0.0
1752780001864,112.0,-32.0,-157.0,-6.0,6.0,-7.0,-0.4,2.5,0.3,-0.3,-0.78,-0.53,0.14,0.0,0.0,0.0
1752780001915,112.0,-31.0,-157.0,-5.0,5.0,-7.0,0.3,1.8,1.0,-0.3,-0.78,-0.53,0.13,0.0,0.0,0.0
1752780001949,111.0,-30.0,-156.0,-5.0,6.0,-6.0,-0.5,2.4,2.2,-0.3,-0.78,-0.53,0.11,0.0,0.0,0.0
1752780001983,111.0,-29.0,-156.0,-5.0,5.0,-7.0,0.0,2.0,0.6,-0.3,-0.78,-0.54,0.11,0.0,0.0,0.0
1752780002025,111.0,-28.0,-158.0,-5.0,4.0,-8.0,-0.1,1.1,0.3,-0.28,-0.78,-0.54,0.1,0.0,0.0,0.0
1752780002069,109.0,-27.0,-160.0,-4.0,6.0,-6.0,-0.0,3.0,2.0,-0.27,-0.78,-0.55,0.1,0.0,0.0,0.0
1752780002111,108.0,-26.0,-162.0,-4.0,4.0,-8.0,0.3,1.0,0.8,-0.25,-0.78,-0.57,0.1,0.0,0.0,0.0
1752780002153,105.0,-24.0,-164.0,-4.0,4.0,-8.0,-0.3,1.8,1.3,-0.23,-0.77,-0.59,0.09,0.0,0.0,0.0
1752780002189,101.0,-23.0,-167.0,-3.0,7.0,-7.0,0.4,3.1,1.2,-0.21,-0.75,-0.62,0.09,0.0,0.0,0.0
1752780002224,96.0,-21.0,-169.0,-4.0,2.0,-10.0,-0.9,0.7,1.1,-0.19,-0.73,-0.66,0.07,0.0,0.0,0.0
1752780002272,89.0,-20.0,-170.0,-3.0,5.0,-9.0,-0.1,2.9,0.1,-0.18,-0.7,-0.69,0.07,0.0,0.0,0.0
1752780002309,84.0,-18.0,-170.0,-3.0,4.0,-9.0,0.3,2.3,0.4,-0.18,-0.66,-0.73,0.04,0.0,0.0,0.0
1752780002351,78.0,-17.0,-171.0,-4.0,2.0,-8.0,-1.0,0.9,1.3,-0.16,-0.62,-0.77,0.04,0.0,0.0,0.0
1752780002393,70.0,-15.0,-172.0,-4.0,3.0,-8.0,-1.3,2.8,1.2,-0.15,-0.57,-0.81,0.02,0.0,0.0,0.0
1752780002532,63.0,-11.0,-174.0,-1.0,-0.0,-5.0,-1.8,-0.6,2.5,-0.11,-0.52,-0.85,0.0,0.0,0.0,0.0
1752780002681,20.0,8.0,173.0,3.0,-1.0,-11.0,1.0,-0.5,0.6,0.08,-0.19,-0.98,0.04,0.0,0.0,0.0
1752780002715,13.0,7.0,169.0,1.0,-2.0,-10.0,0.4,1.0,-1.8,0.07,-0.13,-0.99,0.08,0.0,0.0,0.0
1752780002768,6.0,6.0,165.0,2.0,-6.0,-9.0,1.5,-3.3,0.7,0.06,-0.05,-0.99,0.13,0.0,0.0,0.0
1752780002798,359.0,0.0,157.0,-1.0,-6.0,-6.0,-1.5,-0.6,1.7,0.0,0.01,-0.98,0.2,0.0,0.0,0.0
1752780002835,355.0,-3.0,150.0,0.0,-6.0,-10.0,0.8,-1.9,0.2,-0.04,0.04,-0.97,0.25,0.0,0.0,0.0
1752780002882,352.0,-8.0,143.0,-2.0,-8.0,-7.0,-0.3,-1.6,0.1,-0.09,0.06,-0.94,0.31,0.0,0.0,0.0
1752780002919,130.0,-15.0,131.0,-2.0,-7.0,-4.0,0.5,0.5,1.6,-0.16,0.08,-0.91,0.38,0.0,0.0,0.0
1752780002961,121.0,-19.0,124.0,-2.0,-10.0,-2.0,1.5,-1.7,2.1,-0.24,0.1,-0.87,0.42,0.0,0.0,0.0
1752780003002,112.0,-23.0,116.0,-4.0,-11.0,-1.0,0.2,-3.5,2.9,-0.31,0.13,-0.83,0.45,0.0,0.0,0.0
1752780003039,102.0,-27.0,109.0,-4.0,-12.0,1.0,0.7,-4.0,4.2,-0.38,0.15,-0.79,0.47,0.0,0.0,0.0
1752780003074,95.0,-31.0,102.0,-4.0,-10.0,2.0,1.4,-1.8,3.0,-0.43,0.15,-0.75,0.47,0.0,0.0,0.0
1752780003224,87.0,-38.0,97.0,-6.0,-7.0,2.0,2.3,-1.9,2.2,-0.48,0.12,-0.74,0.47,0.0,0.0,0.0
1752780003265,65.0,-62.0,98.0,-8.0,-3.0,-1.0,0.7,1.1,0.3,-0.58,-0.06,-0.73,0.37,0.0,0.0,0.0
1752780003307,57.0,-72.0,108.0,-8.0,-1.0,1.0,1.6,-0.9,3.2,-0.59,-0.13,-0.73,0.33,0.0,0.0,0.0
1752780003446,48.0,-76.0,-167.0,-8.0,1.0,-1.0,1.2,0.5,1.7,-0.57,-0.36,-0.7,0.25,0.0,0.0,0.0
1752780003484,43.0,-71.0,-154.0,-8.0,3.0,-2.0,1.2,1.2,1.7,-0.55,-0.41,-0.69,0.22,0.0,0.0,0.0
1752780003626,25.0,-53.0,-145.0,-8.0,6.0,-4.0,-0.1,2.2,1.2,-0.49,-0.51,-0.7,0.12,0.0,0.0,0.0
1752780003674,19.0,-50.0,-144.0,-8.0,7.0,-1.0,-0.2,2.2,3.5,-0.49,-0.5,-0.71,0.09,0.0,0.0,0.0
1752780003827,10.0,-46.0,-146.0,-4.0,7.0,-11.0,1.2,3.7,-3.6,-0.46,-0.5,-0.73,0.05,0.0,0.0,0.0
1752780003868,48.0,-26.0,-160.0,-2.0,1.0,-8.0,1.8,-1.0,1.1,-0.28,-0.39,-0.88,-0.05,0.0,0.0,0.0
1752780003904,40.0,-22.0,-166.0,-2.0,0.0,-8.0,1.6,-2.3,1.2,-0.22,-0.33,-0.92,-0.04,0.0,0.0,0.0
1752780003939,32.0,-16.0,-171.0,-1.0,-2.0,-10.0,1.2,-1.4,-1.9,-0.15,-0.27,-0.95,-0.03,0.0,0.0,0.0
1752780003980,26.0,-7.0,-175.0,0.0,1.0,-11.0,0.8,0.8,-2.1,-0.07,-0.22,-0.97,-0.03,0.0,0.0,0.0
1752780004026,19.0,1.0,-180.0,1.0,-2.0,-11.0,0.5,-2.1,-0.9,-0.0,-0.18,-0.98,-0.01,0.0,0.0,0.0
1752780004064,14.0,4.0,177.0,1.0,-4.0,-12.0,0.2,-3.2,-1.8,0.04,-0.12,-0.99,0.02,0.0,0.0,0.0
1752780004305,14.0,-13.0,146.0,-2.0,-8.0,-9.0,0.8,-2.3,0.1,0.06,-0.08,-0.99,0.06,0.0,0.0,0.0
1752780004460,17.0,-23.0,140.0,-7.0,-2.0,-5.0,-0.3,0.7,1.2,-0.16,-0.14,-0.91,0.35,0.0,0.0,0.0
1752780004494,84.0,-48.0,156.0,-7.0,-2.0,-7.0,0.4,0.6,-0.2,-0.33,-0.32,-0.84,0.29,0.0,0.0,0.0
1752780004530,76.0,-51.0,163.0,-8.0,0.0,-2.0,-0.4,1.8,3.4,-0.35,-0.37,-0.82,0.27,0.0,0.0,0.0
1752780004575,71.0,-53.0,171.0,-8.0,-2.0,-5.0,-0.0,-1.4,1.0,-0.37,-0.42,-0.79,0.27,0.0,0.0,0.0
1752780004626,68.0,-53.0,176.0,-8.0,-1.0,-5.0,-0.2,0.9,1.4,-0.37,-0.46,-0.77,0.25,0.0,0.0,0.0
1752780004663,64.0,-54.0,-175.0,-8.0,2.0,-4.0,-0.4,1.9,1.9,-0.38,-0.5,-0.74,0.24,0.0,0.0,0.0
1752780004714,61.0,-53.0,-169.0,-8.0,4.0,-4.0,-0.6,2.1,2.2,-0.39,-0.55,-0.7,0.23,0.0,0.0,0.0
1752780004739,57.0,-52.0,-164.0,-8.0,3.0,-5.0,-0.2,2.2,1.2,-0.39,-0.59,-0.67,0.22,0.0,0.0,0.0
1752780004784,53.0,-49.0,-160.0,-7.0,5.0,-6.0,0.5,2.7,0.1,-0.39,-0.61,-0.66,0.2,0.0,0.0,0.0
1752780004824,50.0,-48.0,-157.0,-7.0,6.0,-6.0,0.6,3.1,0.3,-0.4,-0.63,-0.64,0.19,0.0,0.0,0.0
1752780004868,47.0,-49.0,-154.0,-7.0,6.0,-6.0,0.3,3.0,-0.1,-0.41,-0.63,-0.64,0.18,0.0,0.0,0.0
1752780004901,45.0,-51.0,-151.0,-8.0,8.0,-6.0,0.2,5.3,-1.0,-0.44,-0.61,-0.64,0.18,0.0,0.0,0.0
1752780004938,43.0,-54.0,-149.0,-8.0,8.0,-5.0,0.4,4.7,-0.1,-0.46,-0.58,-0.64,0.18,0.0,0.0,0.0
1752780004986,46.0,-59.0,-151.0,-7.0,4.0,-4.0,1.4,1.2,-0.0,-0.48,-0.54,-0.66,0.2,0.0,0.0,0.0
1752780005230,67.0,-83.0,175.0,-7.0,-1.0,4.0,1.8,2.1,2.5,-0.5,-0.49,-0.67,0.24,0.0,0.0,0.0
1752780005262,88.0,-63.0,57.0,-6.0,-4.0,4.0,2.6,0.4,1.5,-0.57,-0.22,-0.57,0.55,0.0,0.0,0.0
1752780005305,100.0,-53.0,54.0,-5.0,-8.0,6.0,1.0,-4.5,1.8,-0.53,-0.18,-0.54,0.63,0.0,0.0,0.0
1752780005352,107.0,-42.0,51.0,-5.0,-11.0,8.0,1.0,-2.6,3.6,-0.51,-0.12,-0.5,0.69,0.0,0.0,0.0
1752780005392,108.0,-37.0,45.0,-6.0,-2.0,10.0,-0.6,3.5,3.9,-0.52,-0.09,-0.46,0.71,0.0,0.0,0.0
1752780005422,113.0,-33.0,44.0,-4.0,-9.0,7.0,1.4,-2.9,1.2,-0.5,-0.08,-0.44,0.74,0.0,0.0,0.0
1752780005463,114.0,-29.0,41.0,-5.0,-4.0,11.0,-0.6,2.0,4.2,-0.5,-0.05,-0.41,0.77,0.0,0.0,0.0
1752780005507,113.0,-25.0,39.0,-4.0,-4.0,7.0,0.4,1.1,-0.1,-0.51,-0.02,-0.38,0.77,0.0,0.0,0.0
1752780005550,114.0,-24.0,39.0,-3.0,-6.0,8.0,0.6,0.9,2.3,-0.5,-0.02,-0.38,0.77,0.0,0.0,0.0
1752780005594,113.0,-23.0,38.0,-4.0,-4.0,11.0,-0.0,0.9,3.5,-0.51,-0.01,-0.37,0.78,0.0,0.0,0.0
1752780005635,114.0,-25.0,41.0,-4.0,-3.0,6.0,0.9,2.3,-0.8,-0.5,-0.02,-0.4,0.77,0.0,0.0,0.0
1752780005676,118.0,-27.0,43.0,-4.0,-6.0,9.0,0.1,0.4,2.7,-0.47,-0.04,-0.42,0.78,0.0,0.0,0.0
1752780005722,119.0,-28.0,44.0,-5.0,-5.0,9.0,0.2,0.9,3.5,-0.46,-0.05,-0.42,0.78,0.0,0.0,0.0
1752780005756,119.0,-32.0,51.0,-5.0,-4.0,5.0,0.0,3.1,-0.3,-0.45,-0.07,-0.48,0.75,0.0,0.0,0.0
1752780005791,120.0,-35.0,57.0,-4.0,-6.0,2.0,1.1,1.7,-2.3,-0.43,-0.09,-0.52,0.74,0.0,0.0,0.0
1752780005832,120.0,-36.0,59.0,-6.0,-5.0,5.0,0.1,1.8,-0.2,-0.42,-0.1,-0.53,0.73,0.0,0.0,0.0
1752780005888,120.0,-36.0,59.0,-6.0,-5.0,4.0,0.1,1.5,-0.5,-0.42,-0.09,-0.53,0.73,0.0,0.0,0.0
1752780006029,120.0,-35.0,56.0,-5.0,-5.0,5.0,0.0,1.5,0.1,-0.43,-0.09,-0.52,0.74,0.0,0.0,0.0
1752780006069,120.0,-33.0,54.0,-5.0,-6.0,6.0,0.0,1.0,0.9,-0.44,-0.08,-0.5,0.75,0.0,0.0,0.0
1752780006118,119.0,-33.0,54.0,-5.0,-6.0,6.0,0.0,0.9,1.1,-0.44,-0.07,-0.5,0.75,0.0,0.0,0.0
1752780006144,119.0,-32.0,54.0,-5.0,-5.0,5.0,0.5,1.3,-0.4,-0.44,-0.07,-0.49,0.75,0.0,0.0,0.0
1752780006185,118.0,-31.0,53.0,-5.0,-6.0,6.0,-0.2,0.3,1.1,-0.45,-0.05,-0.49,0.75,0.0,0.0,0.0
1752780006235,117.0,-29.0,49.0,-5.0,-4.0,6.0,0.1,1.9,0.1,-0.46,-0.04,-0.46,0.76,0.0,0.0,0.0
1752780006266,117.0,-29.0,47.0,-4.0,-6.0,5.0,0.9,0.0,-1.0,-0.47,-0.04,-0.45,0.76,0.0,0.0,0.0
1752780006317,116.0,-28.0,44.0,-4.0,-5.0,7.0,0.8,0.4,0.8,-0.48,-0.04,-0.43,0.76,0.0,0.0,0.0
1752780006348,112.0,-28.0,40.0,-4.0,-3.0,7.0,1.2,2.2,-0.1,-0.51,-0.04,-0.4,0.76,0.0,0.0,0.0
1752780006383,108.0,-27.0,30.0,-4.0,-3.0,8.0,0.8,1.5,0.5,-0.54,-0.06,-0.34,0.76,0.0,0.0,0.0
1752780006632,104.0,-25.0,20.0,-4.0,1.0,10.0,1.6,1.6,-1.5,-0.58,-0.07,-0.28,0.76,0.0,0.0,0.0
1752780006679,90.0,-27.0,5.0,-4.0,-1.0,9.0,1.0,-0.1,0.5,-0.68,-0.14,-0.2,0.69,0.0,0.0,0.0
1752780006716,88.0,-27.0,3.0,-4.0,0.0,11.0,0.8,0.4,2.8,-0.7,-0.15,-0.19,0.67,0.0,0.0,0.0
1752780006766,84.0,-28.0,1.0,-3.0,1.0,13.0,1.6,-2.5,3.7,-0.72,-0.15,-0.19,0.65,0.0,0.0,0.0
1752780006800,81.0,-32.0,-3.0,-4.0,-2.0,11.0,2.0,0.7,0.2,-0.73,-0.2,-0.19,0.63,0.0,0.0,0.0
1752780006834,71.0,-38.0,-6.0,-2.0,4.0,9.0,2.7,2.6,1.1,-0.77,-0.23,-0.24,0.55,0.0,0.0,0.0
1752780006883,65.0,-44.0,-14.0,-4.0,1.0,8.0,2.6,-0.7,0.9,-0.78,-0.27,-0.26,0.5,0.0,0.0,0.0
1752780007023,62.0,-47.0,-16.0,-4.0,-0.0,7.0,2.8,-0.4,0.7,-0.78,-0.29,-0.29,0.47,0.0,0.0,0.0
1752780007074,35.0,-52.0,-28.0,-5.0,2.0,7.0,1.9,0.9,1.7,-0.84,-0.29,-0.37,0.27,0.0,0.0,0.0
1752780007111,31.0,-53.0,-32.0,-6.0,3.0,5.0,1.9,-0.2,0.0,-0.84,-0.3,-0.39,0.24,0.0,0.0,0.0
1752780007153,29.0,-54.0,-37.0,-6.0,4.0,4.0,1.1,0.6,0.3,-0.83,-0.31,-0.41,0.21,0.0,0.0,0.0
1752780007192,26.0,-53.0,-42.0,-6.0,4.0,9.0,2.2,-0.3,4.7,-0.83,-0.34,-0.41,0.2,0.0,0.0,0.0
1752780007344,16.0,-56.0,-68.0,-7.0,4.0,3.0,1.1,-0.7,1.7,-0.83,-0.34,-0.41,0.17,0.0,0.0,0.0
1752780007373,13.0,-56.0,-76.0,-6.0,4.0,3.0,2.2,-0.9,2.8,-0.75,-0.42,-0.51,0.09,0.0,0.0,0.0
1752780007409,9.0,-56.0,-89.0,-6.0,5.0,3.0,2.1,1.0,1.5,-0.71,-0.44,-0.55,0.06,0.0,0.0,0.0
1752780007444,3.0,-52.0,-103.0,-7.0,6.0,-1.0,0.1,0.3,0.4,-0.66,-0.47,-0.59,0.02,0.0,0.0,0.0
1752780007490,356.0,-47.0,-114.0,-6.0,7.0,-1.0,0.9,0.3,2.0,-0.6,-0.49,-0.63,-0.02,0.0,0.0,0.0
1752780007641,64.0,-23.0,-141.0,-2.0,9.0,-6.0,1.3,0.9,0.0,-0.36,-0.5,-0.78,-0.14,0.0,0.0,0.0
1752780007689,55.0,-15.0,-148.0,-1.0,6.0,-10.0,0.8,1.5,-1.3,-0.26,-0.45,-0.83,-0.17,0.0,0.0,0.0
1752780007820,50.0,-11.0,-153.0,3.0,-2.0,-14.0,1.3,-2.7,-4.3,-0.19,-0.41,-0.88,-0.17,0.0,0.0,0.0
1752780007859,9.0,13.0,-179.0,3.0,-3.0,-10.0,-0.0,-0.9,1.0,0.11,-0.08,-0.99,-0.02,0.0,0.0,0.0
1752780007899,3.0,10.0,174.0,0.0,1.0,-8.0,-0.7,2.2,0.8,0.09,-0.03,-0.99,0.05,0.0,0.0,0.0
1752780007939,357.0,11.0,165.0,3.0,-2.0,-9.0,0.8,-0.8,1.4,0.09,0.03,-0.99,0.13,0.0,0.0,0.0
1752780007979,348.0,13.0,151.0,3.0,-9.0,-7.0,0.6,-4.1,0.9,0.09,0.08,-0.96,0.23,0.0,0.0,0.0
1752780008025,345.0,14.0,148.0,2.0,-9.0,-7.0,-0.5,-3.8,0.9,0.09,0.13,-0.95,0.28,0.0,0.0,0.0
1752780008060,345.0,12.0,143.0,2.0,-4.0,-10.0,1.2,1.8,-3.3,0.07,0.12,-0.94,0.32,0.0,0.0,0.0
1752780008099,191.0,9.0,135.0,2.0,-11.0,-10.0,1.2,-3.9,-3.2,0.04,0.11,-0.92,0.38,0.0,0.0,0.0
1752780008139,169.0,2.0,123.0,3.0,-9.0,-5.0,2.0,2.7,2.2,-0.04,0.11,-0.87,0.47,0.0,0.0,0.0
1752780008180,133.0,-18.0,106.0,-0.0,-1.0,2.0,3.1,8.0,3.8,-0.2,0.08,-0.81,0.54,0.0,0.0,0.0
1752780008222,116.0,-26.0,95.0,-5.0,-1.0,9.0,-1.0,7.5,8.4,-0.36,0.08,-0.73,0.57,0.0,0.0,0.0
1752780008270,111.0,-21.0,80.0,-2.0,-9.0,8.0,1.1,0.0,5.7,-0.43,0.14,-0.65,0.61,0.0,0.0,0.0
1752780008511,9.0,-9.0,149.0,3.0,1.0,-10.0,3.9,0.4,0.8,-0.06,-0.08,-0.96,0.27,0.0,0.0,0.0
1752780008548,20.0,-5.0,163.0,4.0,-3.0,-10.0,4.5,-1.0,-2.8,-0.02,-0.17,-0.97,0.15,0.0,0.0,0.0
1752780008595,35.0,3.0,173.0,6.0,-3.0,-14.0,5.6,-2.3,-4.5,0.03,-0.27,-0.96,0.07,0.0,0.0,0.0
1752780008632,49.0,6.0,180.0,7.0,5.0,-13.0,5.6,4.4,-3.0,0.05,-0.38,-0.92,-0.01,0.0,0.0,0.0
1752780008774,61.0,5.0,-180.0,-0.0,13.0,-1.0,0.7,9.4,7.9,0.04,-0.51,-0.86,-0.02,0.0,0.0,0.0
1752780008817,91.0,-4.0,-158.0,2.0,11.0,-1.0,3.3,9.2,6.8,-0.17,-0.71,-0.68,-0.1,0.0,0.0,0.0
1752780008868,87.0,1.0,-162.0,5.0,10.0,-4.0,5.0,6.8,5.7,-0.11,-0.68,-0.71,-0.12,0.0,0.0,0.0
1752780008901,77.0,7.0,-167.0,6.0,6.0,-6.0,4.6,4.6,1.8,-0.02,-0.62,-0.77,-0.12,0.0,0.0,0.0
1752780009140,62.0,18.0,-173.0,4.0,-5.0,8.0,2.4,6.9,10.4,0.1,-0.51,-0.84,-0.13,0.0,0.0,0.0
1752780009187,104.0,-17.0,73.0,3.0,-3.0,11.0,5.3,5.7,7.5,-0.46,0.22,-0.6,0.61,0.0,0.0,0.0
1752780009228,101.0,-14.0,57.0,1.0,-3.0,14.0,3.3,3.8,7.2,-0.56,0.19,-0.45,0.67,0.0,0.0,0.0
1752780009466,88.0,-22.0,46.0,-3.0,2.0,9.0,9.8,-15.6,10.6,-0.61,0.15,-0.35,0.7,0.0,0.0,0.0
1752780009501,129.0,1.0,86.0,12.0,-12.0,6.0,12.6,-2.5,6.6,-0.34,0.33,-0.56,0.67,0.0,0.0,0.0
1752780009540,132.0,-12.0,114.0,12.0,-1.0,-0.0,14.0,7.5,4.6,-0.25,0.21,-0.77,0.55,0.0,0.0,0.0
1752780009597,10.0,-14.0,140.0,12.0,2.0,-10.0,11.6,8.0,-5.3,-0.1,-0.08,-0.93,0.34,0.0,0.0,0.0
1752780009632,31.0,-7.0,160.0,5.0,1.0,-9.0,6.3,4.4,0.3,-0.02,-0.24,-0.95,0.2,0.0,0.0,0.0
1752780009778,42.0,-6.0,164.0,4.0,15.0,-13.0,3.1,16.8,-3.0,-0.0,-0.35,-0.92,0.15,0.0,0.0,0.0
1752780009813,70.0,6.0,171.0,4.0,9.0,-8.0,2.9,9.9,1.4,0.09,-0.57,-0.81,0.03,0.0,0.0,0.0
1752780009858,62.0,6.0,170.0,6.0,6.0,-10.0,4.9,7.2,-0.5,0.09,-0.51,-0.85,0.04,0.0,0.0,0.0
1752780009904,50.0,8.0,166.0,7.0,-0.0,-10.0,5.9,2.5,-0.8,0.11,-0.42,-0.9,0.08,0.0,0.0,0.0
1752780009937,31.0,8.0,157.0,7.0,-4.0,-9.0,5.7,-0.4,0.2,0.12,-0.29,-0.94,0.15,0.0,0.0,0.0
1752780009977,19.0,8.0,151.0,11.0,-1.0,-13.0,10.2,4.6,-5.0,0.11,-0.16,-0.95,0.23,0.0,0.0,0.0
1752780010017,4.0,5.0,139.0,13.0,-7.0,-5.0,12.2,-0.1,2.5,0.06,-0.04,-0.94,0.35,0.0,0.0,0.0
1752780010049,163.0,-1.0,117.0,10.0,-8.0,2.0,9.8,1.1,5.8,-0.08,0.1,-0.85,0.52,0.0,0.0,0.0
1752780010196,131.0,-10.0,86.0,6.0,-5.0,7.0,8.1,9.6,1.9,-0.26,0.17,-0.7,0.64,0.0,0.0,0.0
1752780010247,71.0,9.0,7.0,2.0,10.0,17.0,-0.5,8.1,7.7,-0.79,0.09,-0.02,0.61,0.0,0.0,0.0
1752780010288,62.0,19.0,-7.0,5.0,4.0,12.0,1.9,2.8,2.3,-0.84,0.04,0.17,0.51,0.0,0.0,0.0
1752780010327,59.0,18.0,-10.0,7.0,5.0,7.0,4.4,3.1,-2.3,-0.86,0.0,0.17,0.48,0.0,0.0,0.0
1752780010366,57.0,17.0,-11.0,7.0,9.0,10.0,3.7,8.4,1.8,-0.86,-0.01,0.18,0.47,0.0,0.0,0.0
1752780010405,57.0,17.0,-11.0,6.0,11.0,10.0,4.8,9.2,-1.3,-0.86,-0.01,0.17,0.47,0.0,0.0,0.0
1752780010448,65.0,12.0,-10.0,7.0,8.0,8.0,5.8,6.7,-2.3,-0.84,-0.02,0.14,0.53,0.0,0.0,0.0
1752780010497,81.0,6.0,-7.0,7.0,4.0,8.0,5.5,2.9,-0.3,-0.78,-0.01,0.09,0.62,0.0,0.0,0.0
1752780010530,99.0,3.0,-2.0,6.0,3.0,12.0,6.2,2.4,2.4,-0.68,0.01,0.04,0.73,0.0,0.0,0.0
1752780010580,116.0,-2.0,7.0,7.0,-3.0,10.0,7.7,-0.4,0.8,-0.53,0.01,-0.06,0.85,0.0,0.0,0.0
1752780010616,136.0,-9.0,25.0,6.0,-5.0,6.0,8.5,-0.2,-2.8,-0.36,0.0,-0.23,0.9,0.0,0.0,0.0
1752780010652,156.0,-12.0,49.0,5.0,-7.0,1.0,7.1,1.4,-4.0,-0.19,-0.03,-0.42,0.89,0.0,0.0,0.0
1752780010700,179.0,-8.0,77.0,4.0,-11.0,-1.0,4.7,-1.2,-2.8,-0.04,-0.08,-0.58,0.81,0.0,0.0,0.0
1752780010734,196.0,-3.0,99.0,5.0,-7.0,-9.0,5.2,2.0,-6.3,0.07,-0.13,-0.71,0.68,0.0,0.0,0.0
1752780010784,209.0,-1.0,113.0,4.0,-1.0,-14.0,3.9,7.1,-9.2,0.14,-0.22,-0.81,0.53,0.0,0.0,0.0
1752780010815,219.0,-0.0,126.0,3.0,1.0,-17.0,3.2,9.0,-10.3,0.15,-0.3,-0.84,0.43,0.0,0.0,0.0
1752780010854,217.0,-2.0,129.0,3.0,-2.0,-13.0,3.1,5.5,-6.0,0.14,-0.32,-0.84,0.41,0.0,0.0,0.0
1752780010898,206.0,-4.0,127.0,2.0,-3.0,-10.0,3.1,5.1,-4.6,0.1,-0.29,-0.85,0.43,0.0,0.0,0.0
1752780010936,190.0,-8.0,122.0,6.0,-3.0,-12.0,7.2,5.3,-6.7,0.05,-0.24,-0.85,0.47,0.0,0.0,0.0
1752780010987,177.0,-12.0,115.0,9.0,-2.0,-6.0,11.3,7.5,-3.4,-0.02,-0.17,-0.82,0.54,0.0,0.0,0.0
1752780011021,159.0,-15.0,98.0,12.0,-4.0,-1.0,15.8,5.6,0.3,-0.12,-0.07,-0.75,0.65,0.0,0.0,0.0
1752780011053,142.0,-12.0,69.0,14.0,-3.0,10.0,14.7,6.1,5.5,-0.27,0.06,-0.57,0.78,0.0,0.0,0.0
1752780011097,113.0,1.0,30.0,10.0,4.0,17.0,9.2,8.1,8.1,-0.48,0.14,-0.29,0.82,0.0,0.0,0.0
1752780011140,92.0,16.0,13.0,5.0,7.0,18.0,3.1,5.8,8.4,-0.66,0.17,-0.03,0.73,0.0,0.0,0.0
1752780011190,78.0,24.0,-2.0,7.0,3.0,13.0,3.0,1.8,3.6,-0.75,0.13,0.16,0.63,0.0,0.0,0.0
1752780011324,73.0,22.0,-8.0,5.0,7.0,6.0,2.9,4.1,-3.2,-0.79,0.06,0.19,0.58,0.0,0.0,0.0
1752780011365,53.0,12.0,-17.0,5.0,8.0,6.0,3.6,5.3,-3.1,-0.88,-0.08,0.16,0.44,0.0,0.0,0.0
1752780011409,52.0,11.0,-15.0,6.0,11.0,5.0,4.0,9.8,-4.7,-0.88,-0.07,0.15,0.44,0.0,0.0,0.0
1752780011443,55.0,10.0,-10.0,5.0,12.0,7.0,5.4,4.5,-1.3,-0.88,-0.04,0.12,0.46,0.0,0.0,0.0
1752780011585,77.0,10.0,-8.0,7.0,-6.0,8.0,6.1,-1.6,-0.7,-0.8,-0.01,0.11,0.58,0.0,0.0,0.0
1752780011626,135.0,1.0,39.0,5.0,-8.0,4.0,5.3,-0.0,-2.0,-0.36,0.14,-0.3,0.87,0.0,0.0,0.0
1752780011667,149.0,-2.0,61.0,4.0,-4.0,1.0,4.0,6.2,-2.3,-0.23,0.12,-0.5,0.83,0.0,0.0,0.0
1752780011710,160.0,-2.0,84.0,3.0,-5.0,0.0,2.9,3.7,0.6,-0.13,0.09,-0.66,0.73,0.0,0.0,0.0
1752780011744,178.0,3.0,101.0,5.0,-9.0,-2.0,5.8,-0.9,-1.3,-0.01,0.06,-0.77,0.63,0.0,0.0,0.0
1752780011897,41.0,7.0,142.0,5.0,7.0,-15.0,4.4,13.3,-8.4,0.18,-0.3,-0.89,0.29,0.0,0.0,0.0
1752780012140,51.0,6.0,145.0,23.0,7.0,17.0,24.3,13.2,9.6,0.18,-0.4,-0.86,0.25,0.0,0.0,0.0
1752780012183,98.0,7.0,26.0,20.0,16.0,30.0,16.3,19.1,21.1,-0.64,0.2,-0.13,0.73,0.0,0.0,0.0
1752780012216,67.0,31.0,19.0,3.0,17.0,32.0,4.0,9.8,12.4,-0.79,0.27,0.14,0.53,0.0,0.0,0.0
1752780012256,73.0,25.0,12.0,14.0,1.0,9.0,10.8,2.5,-1.5,-0.78,0.21,0.12,0.58,0.0,0.0,0.0
1752780012300,86.0,12.0,9.0,10.0,-1.0,7.0,7.4,1.3,-0.7,-0.73,0.13,0.03,0.67,0.0,0.0,0.0
1752780012349,88.0,7.0,16.0,4.0,4.0,16.0,3.4,6.6,6.2,-0.71,0.14,-0.03,0.69,0.0,0.0,0.0
1752780012386,91.0,0.0,22.0,6.0,1.0,11.0,6.9,5.9,2.9,-0.69,0.14,-0.14,0.7,0.0,0.0,0.0
1752780012436,103.0,-17.0,44.0,5.0,-1.0,4.0,7.5,6.5,-1.2,-0.6,0.1,-0.33,0.72,0.0,0.0,0.0
1752780012470,115.0,-26.0,71.0,4.0,-2.0,1.0,8.3,7.0,-1.0,-0.47,0.07,-0.54,0.69,0.0,0.0,0.0
1752780012503,131.0,-26.0,101.0,3.0,1.0,-4.0,7.3,9.4,-1.7,-0.31,-0.01,-0.73,0.61,0.0,0.0,0.0
1752780012541,161.0,-14.0,124.0,4.0,3.0,-9.0,5.7,10.3,-3.0,-0.13,-0.09,-0.85,0.5,0.0,0.0,0.0
1752780012694,275.0,33.0,141.0,7.0,-4.0,-10.0,2.4,-1.0,-4.6,0.09,-0.14,-0.9,0.4,0.0,0.0,0.0
1752780012730,280.0,37.0,144.0,7.0,-3.0,-10.0,1.3,1.3,-3.6,0.32,0.04,-0.91,0.27,0.0,0.0,0.0
1752780012776,269.0,35.0,144.0,6.0,-2.0,-7.0,0.5,2.1,0.4,0.29,0.08,-0.91,0.29,0.0,0.0,0.0
1752780012809,252.0,32.0,143.0,4.0,-6.0,-3.0,-0.8,-2.0,5.0,0.24,0.16,-0.9,0.33,0.0,0.0,0.0
1752780012848,235.0,31.0,144.0,3.0,-8.0,-3.0,-1.8,-3.0,3.8,0.18,0.27,-0.88,0.34,0.0,0.0,0.0
1752780012899,242.0,35.0,147.0,6.0,-9.0,-8.0,0.3,-4.0,-1.6,0.19,0.33,-0.86,0.34,0.0,0.0,0.0
1752780012941,315.0,35.0,150.0,3.0,-4.0,-6.0,-2.8,-0.2,1.2,0.21,0.35,-0.85,0.33,0.0,0.0,0.0
1752780012985,314.0,35.0,155.0,6.0,-6.0,-9.0,2.0,-5.5,-2.5,0.21,0.37,-0.86,0.29,0.0,0.0,0.0
1752780013027,309.0,36.0,163.0,6.0,-6.0,-9.0,-1.4,0.1,0.6,0.23,0.4,-0.85,0.24,0.0,0.0,0.0
1752780013172,305.0,30.0,-177.0,5.0,-0.0,-8.0,0.1,-1.2,0.0,0.24,0.45,-0.85,0.1,0.0,0.0,0.0
1752780013206,303.0,32.0,-170.0,7.0,-0.0,-11.0,0.4,-1.9,-1.5,0.28,0.45,-0.84,0.06,0.0,0.0,0.0
1752780013371,303.0,34.0,-163.0,7.0,2.0,-13.0,1.0,-0.8,-5.0,0.3,0.45,-0.84,0.05,0.0,0.0,0.0
1752780013396,301.0,36.0,-164.0,7.0,2.0,-11.0,0.9,0.0,-3.2,0.33,0.46,-0.83,0.04,0.0,0.0,0.0
1752780013433,300.0,40.0,-165.0,7.0,0.0,-8.0,0.6,-1.6,-0.8,0.35,0.47,-0.81,0.08,0.0,0.0,0.0
1752780013485,297.0,43.0,-168.0,7.0,-0.0,-7.0,0.3,-1.4,-0.8,0.36,0.48,-0.79,0.12,0.0,0.0,0.0
1752780013506,296.0,42.0,-167.0,6.0,1.0,-8.0,-0.3,-0.7,-1.2,0.35,0.49,-0.79,0.11,0.0,0.0,0.0
1752780013548,296.0,40.0,-166.0,6.0,1.0,-8.0,-0.7,-0.7,-1.0,0.35,0.49,-0.79,0.1,0.0,0.0,0.0
1752780013595,296.0,40.0,-166.0,6.0,1.0,-8.0,-0.6,-1.1,-0.5,0.34,0.5,-0.79,0.09,0.0,0.0,0.0
1752780013636,296.0,41.0,-166.0,6.0,1.0,-8.0,-0.4,-1.3,-0.5,0.35,0.5,-0.79,0.1,0.0,0.0,0.0
1752780013681,296.0,41.0,-167.0,6.0,1.0,-8.0,-0.6,-0.9,-0.5,0.35,0.49,-0.79,0.11,0.0,0.0,0.0
1752780014034,297.0,38.0,-171.0,6.0,1.0,-8.0,-0.1,-0.1,-0.1,0.34,0.5,-0.79,0.11,0.0,0.0,0.0
1752780014182,297.0,37.0,-173.0,6.0,1.0,-8.0,-0.1,-0.1,-0.1,0.3,0.49,-0.81,0.12,0.0,0.0,0.0
1752780014218,297.0,37.0,-173.0,6.0,1.0,-8.0,-0.1,-0.1,-0.1,0.3,0.49,-0.81,0.12,0.0,0.0,0.0
1752780014252,297.0,37.0,-173.0,6.0,1.0,-8.0,-0.0,-0.1,-0.2,0.3,0.49,-0.81,0.12,0.0,0.0,0.0
1752780014294,297.0,37.0,-173.0,6.0,1.0,-8.0,-0.1,-0.1,-0.1,0.3,0.49,-0.81,0.12,0.0,0.0,0.0
1752780014334,297.0,37.0,-173.0,6.0,1.0,-8.0,-0.0,-0.1,-0.1,0.3,0.49,-0.81,0.12,0.0,0.0,0.0
1752780014579,297.0,37.0,-173.0,6.0,1.0,-8.0,-0.0,-0.1,-0.1,0.3,0.49,-0.81,0.12,0.0,0.0,0.0
1752780014929,297.0,37.0,-174.0,6.0,1.0,-8.0,-0.1,-0.1,-0.1,0.29,0.49,-0.81,0.12,0.0,0.0,0.0
1752780014972,297.0,37.0,-174.0,6.0,1.0,-8.0,-0.1,-0.1,-0.0,0.29,0.49,-0.81,0.12,0.0,0.0,0.0
1752780015009,297.0,37.0,-174.0,6.0,1.0,-8.0,-0.1,-0.0,-0.1,0.29,0.49,-0.81,0.12,0.0,0.0,0.0
