timestamp,heading,roll,pitch,acc_x,acc_y,acc_z,lin_acc_x,lin_acc_y,lin_acc_z,quat_w,quat_x,quat_y,quat_z,mag_x,mag_y,mag_z
1752859979764,355.0,16.0,-108.0,3.0,9.0,-3.0,0.0,-0.2,0.0,0.59,0.78,-0.2,0.03,0.0,0.0,0.0
1752859979903,355.0,16.0,-108.0,3.0,9.0,-3.0,0.0,0.0,0.1,0.59,0.78,-0.2,0.03,0.0,0.0,0.0
1752859979947,355.0,16.0,-108.0,3.0,9.0,-3.0,0.0,0.0,0.0,0.59,0.78,-0.2,0.03,0.0,0.0,0.0
1752859980093,355.0,16.0,-108.0,3.0,9.0,-3.0,-0.0,0.0,0.0,0.59,0.78,-0.2,0.02,0.0,0.0,0.0
1752859980134,355.0,16.0,-108.0,3.0,9.0,-3.0,0.0,0.0,-0.2,0.59,0.78,-0.2,0.02,0.0,0.0,0.0
1752859980275,355.0,16.0,-108.0,3.0,9.0,-3.0,0.2,-0.1,0.0,0.59,0.78,-0.2,0.02,0.0,0.0,0.0
1752859980315,355.0,16.0,-108.0,3.0,9.0,-3.0,0.3,0.0,0.0,0.59,0.78,-0.2,0.02,0.0,0.0,0.0
1752859980355,355.0,16.0,-108.0,3.0,9.0,-3.0,-0.1,-0.2,-0.0,0.59,0.78,-0.2,0.02,0.0,0.0,0.0
1752859980404,355.0,16.0,-108.0,3.0,9.0,-3.0,-0.0,-0.0,-0.2,0.59,0.78,-0.2,0.02,0.0,0.0,0.0
1752859980651,355.0,15.0,-108.0,3.0,9.0,-3.0,-0.1,0.1,-0.0,0.59,0.78,-0.2,0.02,0.0,0.0,0.0
1752859980700,355.0,15.0,-108.0,3.0,9.0,-3.0,0.1,-0.0,-0.1,0.59,0.78,-0.19,0.03,0.0,0.0,0.0
1752859980752,355.0,16.0,-108.0,3.0,9.0,-3.0,0.1,-0.2,0.1,0.59,0.78,-0.19,0.03,0.0,0.0,0.0
1752859980801,355.0,16.0,-108.0,3.0,9.0,-3.0,0.0,-0.1,-0.3,0.59,0.78,-0.19,0.03,0.0,0.0,0.0
1752859980850,355.0,15.0,-108.0,3.0,9.0,-3.0,-0.1,-0.1,-0.0,0.59,0.78,-0.19,0.02,0.0,0.0,0.0
1752859980896,356.0,15.0,-108.0,3.0,9.0,-3.0,0.1,0.1,0.1,0.59,0.78,-0.19,0.02,0.0,0.0,0.0
1752859980942,356.0,15.0,-108.0,3.0,9.0,-3.0,0.1,0.0,0.0,0.59,0.78,-0.19,0.02,0.0,0.0,0.0
1752859980992,356.0,15.0,-108.0,3.0,9.0,-3.0,0.2,0.0,-0.2,0.59,0.78,-0.19,0.02,0.0,0.0,0.0
1752859981242,356.0,15.0,-108.0,3.0,9.0,-3.0,-0.0,0.0,-0.0,0.59,0.78,-0.19,0.02,0.0,0.0,0.0
1752859981842,356.0,15.0,-108.0,3.0,9.0,-3.0,0.0,0.1,-0.2,0.59,0.78,-0.2,0.02,0.0,0.0,0.0
1752859981886,356.0,15.0,-108.0,3.0,9.0,-3.0,0.1,-0.1,-0.2,0.59,0.78,-0.2,0.02,0.0,0.0,0.0
1752859981947,356.0,15.0,-108.0,3.0,9.0,-3.0,0.2,-0.1,0.0,0.59,0.78,-0.2,0.02,0.0,0.0,0.0
1752859981971,356.0,15.0,-108.0,3.0,9.0,-3.0,0.0,0.0,0.1,0.6,0.78,-0.2,0.02,0.0,0.0,0.0
1752859982008,356.0,15.0,-107.0,3.0,9.0,-3.0,0.0,-0.0,-0.1,0.6,0.78,-0.2,0.02,0.0,0.0,0.0
1752859982056,356.0,15.0,-108.0,3.0,9.0,-3.0,0.1,-0.1,0.2,0.6,0.78,-0.2,0.02,0.0,0.0,0.0
1752859982096,356.0,15.0,-108.0,3.0,9.0,-3.0,0.0,-0.1,0.2,0.6,0.78,-0.19,0.02,0.0,0.0,0.0
1752859982138,356.0,15.0,-108.0,3.0,9.0,-3.0,0.0,0.0,-0.1,0.6,0.78,-0.19,0.02,0.0,0.0,0.0
1752859982176,356.0,15.0,-108.0,3.0,9.0,-3.0,0.0,-0.2,-0.1,0.59,0.78,-0.19,0.02,0.0,0.0,0.0
1752859982316,356.0,15.0,-108.0,2.0,8.0,-3.0,-0.5,-0.6,-0.5,0.59,0.78,-0.19,0.02,0.0,0.0,0.0
1752859982357,356.0,15.0,-108.0,2.0,9.0,-3.0,-0.1,-0.2,0.1,0.59,0.78,-0.2,0.02,0.0,0.0,0.0
1752859982404,356.0,15.0,-107.0,3.0,9.0,-4.0,1.0,0.3,-0.6,0.6,0.78,-0.19,0.02,0.0,0.0,0.0
1752859982453,356.0,15.0,-107.0,2.0,9.0,-1.0,-0.3,-0.2,1.0,0.6,0.78,-0.19,0.02,0.0,0.0,0.0
1752859982599,356.0,15.0,-106.0,3.0,9.0,-2.0,0.1,-0.0,0.8,0.61,0.77,-0.19,0.02,0.0,0.0,0.0
1752859982647,356.0,15.0,-106.0,3.0,9.0,-3.0,0.1,0.0,-0.4,0.6,0.77,-0.19,0.02,0.0,0.0,0.0
1752859982693,356.0,15.0,-106.0,3.0,9.0,-3.0,-0.0,-0.1,-0.1,0.6,0.77,-0.19,0.02,0.0,0.0,0.0
1752859982739,356.0,15.0,-106.0,3.0,9.0,-3.0,-0.0,-0.1,0.0,0.6,0.77,-0.19,0.02,0.0,0.0,0.0
1752859982979,356.0,15.0,-106.0,3.0,9.0,-3.0,0.1,-0.0,-0.0,0.6,0.77,-0.19,0.02,0.0,0.0,0.0
1752859983026,356.0,15.0,-106.0,3.0,9.0,-3.0,0.0,-0.0,-0.1,0.6,0.77,-0.19,0.02,0.0,0.0,0.0
1752859983076,356.0,15.0,-106.0,3.0,9.0,-3.0,0.0,0.0,-0.0,0.6,0.77,-0.19,0.02,0.0,0.0,0.0
1752859983116,356.0,15.0,-106.0,3.0,9.0,-3.0,0.1,0.0,-0.0,0.6,0.77,-0.19,0.02,0.0,0.0,0.0
1752859983162,356.0,15.0,-106.0,3.0,9.0,-3.0,0.0,-0.0,-0.0,0.6,0.77,-0.19,0.02,0.0,0.0,0.0
1752859983306,356.0,15.0,-106.0,3.0,9.0,-3.0,0.0,0.0,-0.1,0.6,0.77,-0.19,0.02,0.0,0.0,0.0
1752859983356,356.0,15.0,-106.0,3.0,9.0,-3.0,0.0,-0.0,-0.0,0.6,0.77,-0.19,0.02,0.0,0.0,0.0
1752859983409,356.0,15.0,-106.0,3.0,9.0,-3.0,0.0,-0.0,-0.0,0.6,0.78,-0.19,0.02,0.0,0.0,0.0
1752859983559,356.0,15.0,-106.0,3.0,9.0,-3.0,0.0,-0.0,-0.0,0.6,0.78,-0.19,0.02,0.0,0.0,0.0
1752859983606,356.0,15.0,-106.0,3.0,9.0,-3.0,0.0,-0.0,0.0,0.6,0.78,-0.19,0.02,0.0,0.0,0.0
1752859983650,356.0,15.0,-107.0,3.0,9.0,-3.0,0.0,-0.0,-0.0,0.6,0.78,-0.19,0.02,0.0,0.0,0.0
1752859983697,356.0,15.0,-107.0,3.0,9.0,-3.0,0.0,-0.0,-0.0,0.6,0.78,-0.19,0.02,0.0,0.0,0.0
1752859983739,356.0,15.0,-107.0,3.0,9.0,-3.0,0.0,-0.0,-0.0,0.6,0.78,-0.19,0.02,0.0,0.0,0.0
1752859983776,356.0,15.0,-107.0,3.0,9.0,-3.0,0.0,-0.0,-0.1,0.6,0.78,-0.19,0.02,0.0,0.0,0.0
1752859984380,356.0,15.0,-107.0,3.0,9.0,-3.0,0.0,0.0,-0.0,0.6,0.78,-0.19,0.02,0.0,0.0,0.0
1752859984418,356.0,15.0,-107.0,3.0,9.0,-3.0,0.0,0.0,-0.0,0.6,0.78,-0.19,0.02,0.0,0.0,0.0
1752859984461,356.0,15.0,-106.0,3.0,9.0,-3.0,0.0,-0.0,-0.0,0.6,0.78,-0.19,0.02,0.0,0.0,0.0
1752859984501,356.0,15.0,-106.0,3.0,9.0,-3.0,0.0,0.0,0.0,0.6,0.78,-0.19,0.02,0.0,0.0,0.0
1752859984646,356.0,15.0,-106.0,3.0,9.0,-3.0,0.0,-0.0,-0.0,0.6,0.78,-0.19,0.02,0.0,0.0,0.0
1752859984790,356.0,15.0,-106.0,3.0,9.0,-3.0,0.0,-0.0,-0.0,0.6,0.77,-0.19,0.02,0.0,0.0,0.0
1752859984828,356.0,15.0,-106.0,3.0,9.0,-3.0,0.0,-0.0,-0.0,0.6,0.77,-0.19,0.02,0.0,0.0,0.0
1752859984868,356.0,15.0,-106.0,3.0,9.0,-3.0,0.0,-0.0,-0.1,0.6,0.78,-0.19,0.02,0.0,0.0,0.0
1752859984915,356.0,15.0,-106.0,3.0,9.0,-3.0,0.0,-0.0,-0.0,0.6,0.78,-0.19,0.02,0.0,0.0,0.0
1752859985059,356.0,15.0,-106.0,3.0,9.0,-3.0,0.0,0.0,-0.1,0.6,0.77,-0.19,0.02,0.0,0.0,0.0
1752859985102,356.0,15.0,-106.0,3.0,9.0,-3.0,0.0,0.0,0.0,0.6,0.77,-0.19,0.02,0.0,0.0,0.0
1752859985147,356.0,15.0,-106.0,3.0,9.0,-3.0,0.0,-0.0,-0.0,0.6,0.77,-0.19,0.02,0.0,0.0,0.0
1752859985298,356.0,15.0,-106.0,3.0,9.0,-3.0,0.0,-0.0,-0.1,0.6,0.77,-0.19,0.02,0.0,0.0,0.0
1752859985329,356.0,15.0,-106.0,3.0,9.0,-3.0,0.0,-0.0,-0.0,0.6,0.77,-0.19,0.02,0.0,0.0,0.0
1752859985369,356.0,15.0,-106.0,3.0,9.0,-3.0,0.0,0.0,0.0,0.6,0.77,-0.19,0.02,0.0,0.0,0.0
1752859985412,356.0,15.0,-106.0,3.0,9.0,-3.0,0.0,0.0,-0.0,0.6,0.77,-0.19,0.02,0.0,0.0,0.0
1752859985563,356.0,15.0,-106.0,3.0,9.0,-3.0,0.0,-0.0,-0.0,0.6,0.77,-0.19,0.02,0.0,0.0,0.0
1752859985601,356.0,15.0,-106.0,3.0,9.0,-3.0,0.0,0.0,-0.0,0.6,0.77,-0.19,0.02,0.0,0.0,0.0
1752859985646,356.0,15.0,-106.0,3.0,9.0,-3.0,0.0,-0.0,-0.0,0.6,0.77,-0.19,0.02,0.0,0.0,0.0
1752859985688,356.0,15.0,-106.0,3.0,9.0,-3.0,0.0,-0.0,-0.0,0.6,0.77,-0.19,0.02,0.0,0.0,0.0
1752859985722,356.0,15.0,-106.0,3.0,9.0,-3.0,0.0,-0.0,-0.0,0.6,0.77,-0.19,0.02,0.0,0.0,0.0
1752859985771,356.0,15.0,-106.0,3.0,9.0,-3.0,0.0,-0.0,-0.0,0.6,0.77,-0.19,0.02,0.0,0.0,0.0
1752859985910,356.0,15.0,-106.0,3.0,9.0,-3.0,0.0,-0.0,-0.1,0.6,0.77,-0.19,0.02,0.0,0.0,0.0
1752859985954,356.0,15.0,-106.0,3.0,9.0,-3.0,0.0,-0.0,-0.0,0.6,0.77,-0.19,0.02,0.0,0.0,0.0
1752859986109,356.0,15.0,-106.0,3.0,9.0,-3.0,0.0,-0.0,-0.0,0.6,0.77,-0.19,0.02,0.0,0.0,0.0
1752859986147,356.0,15.0,-106.0,3.0,9.0,-3.0,0.0,-0.0,-0.0,0.6,0.77,-0.19,0.02,0.0,0.0,0.0
1752859986181,356.0,15.0,-106.0,3.0,9.0,-3.0,0.0,0.0,-0.0,0.6,0.77,-0.19,0.02,0.0,0.0,0.0
1752859986230,356.0,15.0,-106.0,3.0,9.0,-3.0,0.0,-0.1,-0.1,0.6,0.77,-0.19,0.02,0.0,0.0,0.0
1752859986322,356.0,15.0,-106.0,3.0,9.0,-3.0,0.0,-0.1,-0.0,0.6,0.77,-0.19,0.02,0.0,0.0,0.0
1752859986322,356.0,15.0,-106.0,3.0,9.0,-3.0,0.0,0.0,0.0,0.6,0.77,-0.19,0.02,0.0,0.0,0.0
1752859986450,356.0,15.0,-106.0,3.0,9.0,-3.0,0.0,-0.1,-0.1,0.6,0.77,-0.19,0.02,0.0,0.0,0.0
1752859986600,356.0,15.0,-106.0,3.0,9.0,-3.0,0.0,-0.1,-0.0,0.6,0.77,-0.19,0.02,0.0,0.0,0.0
1752859986634,356.0,15.0,-106.0,3.0,9.0,-3.0,0.1,-0.0,-0.0,0.6,0.77,-0.19,0.02,0.0,0.0,0.0
1752859986671,356.0,15.0,-106.0,3.0,9.0,-3.0,0.0,-0.0,-0.1,0.6,0.77,-0.19,0.02,0.0,0.0,0.0
1752859986720,356.0,15.0,-106.0,3.0,9.0,-3.0,0.0,-0.0,-0.0,0.6,0.77,-0.19,0.02,0.0,0.0,0.0
1752859986862,356.0,15.0,-106.0,3.0,9.0,-3.0,0.0,-0.0,0.0,0.6,0.77,-0.19,0.02,0.0,0.0,0.0
1752859987009,356.0,15.0,-106.0,3.0,9.0,-3.0,0.0,0.0,-0.1,0.6,0.77,-0.19,0.02,0.0,0.0,0.0
1752859987151,356.0,15.0,-106.0,3.0,9.0,-3.0,0.0,-0.0,-0.0,0.6,0.77,-0.19,0.02,0.0,0.0,0.0
1752859987185,356.0,15.0,-106.0,3.0,9.0,-3.0,0.0,-0.0,-0.1,0.6,0.77,-0.19,0.02,0.0,0.0,0.0
1752859987235,356.0,15.0,-106.0,3.0,9.0,-3.0,0.0,-0.0,-0.0,0.6,0.77,-0.19,0.02,0.0,0.0,0.0
1752859987269,356.0,15.0,-106.0,3.0,9.0,-3.0,0.0,-0.0,-0.0,0.6,0.77,-0.19,0.02,0.0,0.0,0.0
1752859987512,356.0,15.0,-107.0,3.0,9.0,-3.0,0.0,0.0,0.0,0.6,0.77,-0.19,0.02,0.0,0.0,0.0
1752859987761,356.0,15.0,-106.0,3.0,9.0,-3.0,0.1,-0.0,-0.1,0.6,0.78,-0.19,0.02,0.0,0.0,0.0
1752859987797,356.0,15.0,-107.0,3.0,9.0,-3.0,0.1,-0.1,-0.2,0.6,0.78,-0.19,0.02,0.0,0.0,0.0
1752859987937,356.0,15.0,-106.0,3.0,9.0,-3.0,-0.0,-0.0,0.0,0.6,0.77,-0.19,0.02,0.0,0.0,0.0
1752859987982,356.0,15.0,-106.0,3.0,9.0,-3.0,-0.0,-0.1,0.0,0.6,0.77,-0.19,0.02,0.0,0.0,0.0
1752859988021,356.0,15.0,-106.0,3.0,9.0,-3.0,-0.0,0.0,0.0,0.6,0.77,-0.19,0.02,0.0,0.0,0.0
1752859988064,356.0,15.0,-106.0,3.0,9.0,-3.0,-0.1,0.1,-0.1,0.6,0.77,-0.19,0.02,0.0,0.0,0.0
1752859988108,356.0,15.0,-106.0,3.0,9.0,-3.0,-0.0,-0.1,-0.1,0.6,0.77,-0.19,0.02,0.0,0.0,0.0
1752859988154,356.0,15.0,-106.0,3.0,9.0,-3.0,0.0,0.0,0.1,0.6,0.77,-0.19,0.02,0.0,0.0,0.0
1752859989064,356.0,15.0,-107.0,3.0,9.0,-3.0,0.0,0.0,0.0,0.6,0.77,-0.19,0.02,0.0,0.0,0.0
1752859989101,356.0,15.0,-107.0,3.0,9.0,-3.0,0.0,-0.2,-0.0,0.6,0.78,-0.19,0.02,0.0,0.0,0.0
1752859989141,356.0,15.0,-107.0,3.0,9.0,-3.0,0.0,-0.1,0.0,0.6,0.78,-0.19,0.02,0.0,0.0,0.0
1752859989182,356.0,15.0,-107.0,3.0,9.0,-3.0,-0.0,0.1,0.1,0.6,0.78,-0.19,0.02,0.0,0.0,0.0
1752859989219,356.0,15.0,-107.0,3.0,9.0,-3.0,-0.0,0.0,-0.0,0.6,0.78,-0.19,0.02,0.0,0.0,0.0
1752859989369,356.0,15.0,-106.0,3.0,9.0,-2.0,0.7,0.0,0.4,0.6,0.78,-0.19,0.02,0.0,0.0,0.0
1752859989519,357.0,15.0,-108.0,3.0,7.0,-3.0,0.2,-1.5,-0.5,0.61,0.77,-0.2,0.02,0.0,0.0,0.0
1752859989552,355.0,15.0,-113.0,3.0,8.0,-5.0,0.5,-1.0,-2.5,0.56,0.81,-0.2,0.02,0.0,0.0,0.0
1752859989586,356.0,13.0,-114.0,2.0,8.0,-6.0,-0.4,-1.3,-1.6,0.55,0.82,-0.18,0.02,0.0,0.0,0.0
1752859989636,358.0,10.0,-111.0,1.0,9.0,-3.0,-0.4,-0.5,0.1,0.56,0.82,-0.14,0.01,0.0,0.0,0.0
1752859989688,359.0,6.0,-106.0,1.0,10.0,-1.0,0.4,0.1,1.8,0.59,0.8,-0.09,0.01,0.0,0.0,0.0
1752859989917,357.0,-7.0,-101.0,-2.0,9.0,-1.0,-0.8,-0.3,0.1,0.62,0.79,-0.04,0.0,0.0,0.0,0.0
1752859990084,359.0,-17.0,-110.0,-5.0,8.0,-5.0,-1.4,-0.7,-1.0,0.58,0.77,0.26,0.0,0.0,0.0,0.0
1752859990217,18.0,-18.0,-115.0,-4.0,9.0,-3.0,-1.3,-0.1,0.2,0.54,0.8,0.26,-0.04,0.0,0.0,0.0
1752859990254,20.0,-15.0,-112.0,-3.0,8.0,-3.0,-0.7,0.3,1.0,0.56,0.82,0.09,-0.1,0.0,0.0,0.0
1752859990288,21.0,-12.0,-108.0,-3.0,8.0,-3.0,-0.8,-1.6,0.4,0.58,0.81,0.03,-0.11,0.0,0.0,0.0
1752859990332,22.0,-7.0,-107.0,-0.0,9.0,-3.0,0.9,-0.4,-0.1,0.58,0.8,-0.04,-0.11,0.0,0.0,0.0
1752859990374,24.0,-3.0,-108.0,-0.0,9.0,-4.0,0.1,-0.5,-0.5,0.58,0.8,-0.1,-0.12,0.0,0.0,0.0
1752859990524,31.0,2.0,-110.0,2.0,8.0,-3.0,1.2,-1.0,-0.1,0.56,0.8,-0.16,-0.13,0.0,0.0,0.0
1752859990675,41.0,-5.0,-111.0,-1.0,9.0,-3.0,0.0,-0.3,0.3,0.53,0.79,-0.22,-0.2,0.0,0.0,0.0
1752859990821,57.0,-22.0,-115.0,-3.0,9.0,-3.0,0.5,-0.0,0.6,0.53,0.8,-0.18,-0.22,0.0,0.0,0.0
1752859990858,65.0,-26.0,-120.0,-5.0,7.0,-5.0,-0.2,-0.0,-0.4,0.45,0.85,-0.04,-0.28,0.0,0.0,0.0
1752859990892,76.0,-32.0,-125.0,-6.0,6.0,-5.0,-0.4,-0.3,0.2,0.41,0.86,-0.01,-0.31,0.0,0.0,0.0
1752859991040,98.0,-45.0,-134.0,-8.0,5.0,-5.0,-0.7,0.4,0.2,0.38,0.86,0.02,-0.33,0.0,0.0,0.0
1752859991076,101.0,-47.0,-134.0,-8.0,5.0,-4.0,-0.4,0.1,0.4,0.33,0.86,0.08,-0.39,0.0,0.0,0.0
1752859991216,104.0,-50.0,-132.0,-8.0,4.0,-4.0,-0.1,-0.3,0.1,0.32,0.85,0.09,-0.4,0.0,0.0,0.0
1752859991361,102.0,-49.0,-128.0,-7.0,5.0,-3.0,0.2,-0.1,0.4,0.33,0.84,0.08,-0.42,0.0,0.0,0.0
1752859991411,102.0,-49.0,-127.0,-7.0,6.0,-4.0,0.4,1.1,-0.4,0.35,0.83,0.07,-0.43,0.0,0.0,0.0
1752859991445,102.0,-49.0,-127.0,-7.0,7.0,-4.0,0.4,1.9,-0.1,0.35,0.83,0.07,-0.43,0.0,0.0,0.0
1752859991486,100.0,-48.0,-126.0,-6.0,8.0,-5.0,0.8,2.3,-1.1,0.35,0.83,0.06,-0.42,0.0,0.0,0.0
1752859991527,99.0,-46.0,-127.0,-8.0,6.0,-6.0,-0.9,0.9,-1.9,0.35,0.84,0.05,-0.41,0.0,0.0,0.0
1752859991777,66.0,-29.0,-119.0,-6.0,7.0,-4.0,0.4,-0.0,0.9,0.36,0.85,0.03,-0.39,0.0,0.0,0.0
1752859991826,27.0,-8.0,-112.0,-1.0,7.0,-1.0,-0.5,-2.4,2.1,0.55,0.82,-0.08,-0.13,0.0,0.0,0.0
1752859992184,12.0,1.0,-109.0,0.0,10.0,-3.0,0.1,0.2,-0.0,0.58,0.81,-0.11,-0.06,0.0,0.0,0.0
1752859992225,14.0,1.0,-109.0,1.0,9.0,-4.0,0.6,-0.6,-0.3,0.58,0.81,-0.11,-0.07,0.0,0.0,0.0
1752859992467,50.0,-28.0,-107.0,-5.0,8.0,-2.0,-0.2,0.4,1.0,0.58,0.81,-0.1,-0.08,0.0,0.0,0.0
1752859992517,62.0,-35.0,-112.0,-6.0,8.0,-3.0,0.2,1.3,-0.6,0.52,0.8,0.08,-0.29,0.0,0.0,0.0
1752859992567,74.0,-41.0,-115.0,-6.0,8.0,-4.0,0.6,2.1,-0.8,0.47,0.81,0.1,-0.35,0.0,0.0,0.0
1752859992597,83.0,-47.0,-116.0,-7.0,8.0,-4.0,0.2,2.1,-1.1,0.44,0.8,0.11,-0.39,0.0,0.0,0.0
1752859992634,89.0,-52.0,-114.0,-8.0,7.0,-3.0,-0.1,1.5,-0.9,0.43,0.79,0.13,-0.42,0.0,0.0,0.0
1752859992682,92.0,-54.0,-111.0,-9.0,6.0,-2.0,-1.0,0.4,-0.3,0.44,0.77,0.14,-0.45,0.0,0.0,0.0
1752859992824,93.0,-57.0,-108.0,-9.0,5.0,-2.0,0.1,-1.0,1.4,0.44,0.75,0.15,-0.46,0.0,0.0,0.0
1752859992868,97.0,-63.0,-99.0,-8.0,3.0,-0.0,0.4,-1.0,0.5,0.45,0.71,0.18,-0.51,0.0,0.0,0.0
1752859993018,104.0,-66.0,-93.0,-8.0,4.0,-1.0,0.2,0.4,-0.6,0.44,0.7,0.18,-0.53,0.0,0.0,0.0
1752859993159,97.0,-59.0,-94.0,-8.0,6.0,-0.0,0.0,1.3,0.4,0.46,0.71,0.13,-0.52,0.0,0.0,0.0
1752859993199,91.0,-55.0,-95.0,-8.0,6.0,-0.0,-0.7,0.1,0.1,0.48,0.72,0.12,-0.49,0.0,0.0,0.0
1752859993349,51.0,-27.0,-96.0,-4.0,6.0,0.0,0.0,-2.5,1.0,0.51,0.72,0.1,-0.45,0.0,0.0,0.0
1752859993487,26.0,-10.0,-92.0,-0.0,9.0,1.0,1.3,-0.5,1.3,0.65,0.72,0.0,-0.24,0.0,0.0,0.0
1752859993527,23.0,-9.0,-94.0,-0.0,11.0,-0.0,1.0,1.3,0.6,0.67,0.73,-0.04,-0.14,0.0,0.0,0.0
1752859993872,21.0,-6.0,-97.0,-2.0,8.0,-1.0,-0.1,0.2,-0.0,0.66,0.73,-0.04,-0.13,0.0,0.0,0.0
1752859994493,110.0,-58.0,-85.0,-7.0,6.0,-1.0,1.0,0.9,-1.6,0.42,0.69,0.03,-0.59,0.0,0.0,0.0
1752859994730,111.0,-62.0,-86.0,-9.0,4.0,3.0,-0.8,-1.2,2.0,0.41,0.69,0.05,-0.59,0.0,0.0,0.0
1752859994876,111.0,-54.0,-78.0,-9.0,6.0,1.0,-0.8,0.3,0.2,0.42,0.68,0.04,-0.6,0.0,0.0,0.0
1752859995021,352.0,-52.0,-75.0,-6.0,5.0,-0.0,0.5,-1.6,-2.1,0.76,0.36,0.54,0.05,0.0,0.0,0.0
1752859995065,350.0,-41.0,-74.0,-6.0,6.0,1.0,0.8,-1.1,-0.6,0.77,0.43,0.47,0.06,0.0,0.0,0.0
1752859995221,348.0,-33.0,-78.0,-4.0,8.0,2.0,1.2,-0.1,0.3,0.76,0.5,0.41,0.08,0.0,0.0,0.0
1752859995255,346.0,-30.0,-80.0,-4.0,7.0,2.0,0.7,-0.7,-0.1,0.75,0.52,0.4,0.09,0.0,0.0,0.0
1752859995290,344.0,-27.0,-82.0,-3.0,10.0,1.0,1.6,1.6,-0.5,0.75,0.53,0.38,0.1,0.0,0.0,0.0
1752859995342,342.0,-24.0,-84.0,-3.0,10.0,-1.0,0.8,0.6,-1.7,0.73,0.56,0.37,0.11,0.0,0.0,0.0
1752859995470,329.0,-13.0,-91.0,-0.0,9.0,-1.0,1.8,-0.7,-0.4,0.72,0.58,0.36,0.13,0.0,0.0,0.0
1752859995531,324.0,-9.0,-93.0,-0.0,10.0,1.0,2.0,1.0,1.4,0.66,0.64,0.33,0.21,0.0,0.0,0.0
1752859995569,319.0,-6.0,-95.0,2.0,11.0,1.0,2.4,0.5,1.8,0.63,0.66,0.33,0.23,0.0,0.0,0.0
1752859995602,316.0,-3.0,-96.0,1.0,9.0,0.0,1.3,-0.4,1.5,0.62,0.67,0.32,0.25,0.0,0.0,0.0
1752859995744,319.0,-2.0,-97.0,-1.0,9.0,-2.0,-0.6,-0.6,-1.1,0.61,0.68,0.31,0.26,0.0,0.0,0.0
1752859995787,323.0,-4.0,-97.0,-1.0,9.0,-2.0,0.2,-0.7,-0.5,0.63,0.69,0.29,0.22,0.0,0.0,0.0
1752859996241,339.0,-8.0,-99.0,-1.0,8.0,0.0,-0.1,-1.3,1.9,0.69,0.68,0.24,0.1,0.0,0.0,0.0
1752859996282,338.0,-7.0,-100.0,-1.0,9.0,-1.0,0.3,-0.9,1.2,0.63,0.73,0.24,0.12,0.0,0.0,0.0
1752859996427,339.0,-5.0,-105.0,1.0,8.0,-5.0,1.8,-0.9,-2.4,0.62,0.74,0.23,0.12,0.0,0.0,0.0
1752859996467,338.0,-6.0,-106.0,1.0,10.0,-6.0,1.8,0.1,-2.8,0.59,0.76,0.22,0.11,0.0,0.0,0.0
1752859996612,330.0,-6.0,-111.0,-4.0,7.0,-3.0,-0.2,1.9,-3.8,0.55,0.77,0.29,0.15,0.0,0.0,0.0
1752859996649,325.0,-5.0,-113.0,-0.0,8.0,-7.0,1.2,0.0,-3.1,0.53,0.77,0.32,0.17,0.0,0.0,0.0
1752859996793,301.0,-1.0,-123.0,-2.0,8.0,-4.0,-2.2,0.1,0.9,0.5,0.77,0.34,0.19,0.0,0.0,0.0
1752859996839,295.0,-1.0,-125.0,-0.0,9.0,-4.0,-0.2,0.6,1.9,0.4,0.74,0.48,0.24,0.0,0.0,0.0
1752859997093,258.0,-5.0,-128.0,-5.0,9.0,-2.0,-2.3,1.7,4.0,0.37,0.72,0.53,0.26,0.0,0.0,0.0
1752859997239,256.0,-7.0,-134.0,-3.0,6.0,-9.0,-0.7,2.3,-0.9,0.24,0.44,0.81,0.31,0.0,0.0,0.0
1752859997273,42.0,-16.0,-156.0,-3.0,5.0,-10.0,-0.6,1.0,-1.8,0.2,0.35,0.9,0.14,0.0,0.0,0.0
1752859997322,41.0,-18.0,-157.0,-4.0,5.0,-10.0,-0.6,0.8,-1.3,0.21,0.34,0.91,0.12,0.0,0.0,0.0
1752859997373,40.0,-19.0,-158.0,-4.0,4.0,-10.0,-0.6,0.1,-1.0,0.22,0.33,0.91,0.11,0.0,0.0,0.0
1752859997409,40.0,-20.0,-158.0,-4.0,4.0,-9.0,-0.2,-0.0,-0.7,0.23,0.33,0.91,0.11,0.0,0.0,0.0
1752859997443,40.0,-20.0,-159.0,-4.0,3.0,-9.0,-0.7,-0.4,-0.1,0.23,0.33,0.91,0.1,0.0,0.0,0.0
1752859997483,40.0,-21.0,-159.0,-4.0,3.0,-8.0,-0.3,0.2,0.4,0.23,0.33,0.91,0.1,0.0,0.0,0.0
1752859997635,43.0,-23.0,-160.0,-4.0,3.0,-8.0,-0.4,0.8,0.6,0.23,0.34,0.91,0.1,0.0,0.0,0.0
1752859997677,44.0,-25.0,-159.0,-4.0,5.0,-8.0,-0.3,1.7,-0.0,0.26,0.36,0.89,0.07,0.0,0.0,0.0
1752859997829,56.0,-31.0,-157.0,-6.0,6.0,-5.0,-1.2,3.4,3.6,0.28,0.37,0.88,0.07,0.0,0.0,0.0
1752859997876,62.0,-34.0,-156.0,-7.0,5.0,-6.0,-4.4,0.3,3.2,0.35,0.48,0.8,0.0,0.0,0.0,0.0
1752859997924,71.0,-36.0,-153.0,-8.0,5.0,-6.0,-2.0,1.4,1.4,0.37,0.53,0.76,-0.02,0.0,0.0,0.0
1752859998045,16.0,-37.0,-137.0,-8.0,6.0,-8.0,-2.4,1.0,-2.4,0.39,0.57,0.72,-0.04,0.0,0.0,0.0
1752859998084,10.0,-35.0,-130.0,-8.0,4.0,-4.0,-2.7,-2.8,0.8,0.47,0.69,0.54,-0.05,0.0,0.0,0.0
1752859998333,346.0,-25.0,-71.0,-3.0,8.0,0.0,0.4,-0.2,-2.8,0.52,0.7,0.49,-0.02,0.0,0.0,0.0
1752859998391,344.0,-22.0,-64.0,-5.0,10.0,2.0,-1.7,1.7,-2.1,0.83,0.46,0.29,0.11,0.0,0.0,0.0
1752859998431,341.0,-17.0,-65.0,-4.0,8.0,2.0,-1.3,-0.5,-1.6,0.83,0.48,0.26,0.14,0.0,0.0,0.0
1752859998470,336.0,-13.0,-68.0,-2.0,9.0,0.0,-0.2,-0.3,-2.7,0.81,0.51,0.25,0.17,0.0,0.0,0.0
1752859998505,330.0,-9.0,-73.0,-2.0,9.0,0.0,-0.1,-1.2,-3.2,0.77,0.54,0.25,0.21,0.0,0.0,0.0
1752859998543,320.0,-4.0,-82.0,-1.0,8.0,-0.0,-0.5,-1.7,-1.5,0.72,0.59,0.26,0.25,0.0,0.0,0.0
1752859998591,313.0,-2.0,-86.0,-1.0,6.0,1.0,-0.8,-3.6,0.6,0.68,0.61,0.29,0.28,0.0,0.0,0.0
1752859998732,309.0,-2.0,-86.0,-2.0,6.0,3.0,-1.2,-2.7,1.6,0.66,0.61,0.31,0.31,0.0,0.0,0.0
1752859998782,312.0,-8.0,-92.0,-2.0,7.0,-2.0,-0.2,-2.8,-1.2,0.64,0.61,0.38,0.29,0.0,0.0,0.0
1752859998925,336.0,-24.0,-109.0,-4.0,7.0,-5.0,-0.3,-1.9,-0.8,0.62,0.62,0.41,0.25,0.0,0.0,0.0
1752859998967,347.0,-28.0,-120.0,-5.0,7.0,-7.0,-0.7,-0.5,-2.9,0.53,0.67,0.52,0.06,0.0,0.0,0.0
1752859999014,5.0,-31.0,-134.0,-6.0,4.0,-10.0,-1.5,-0.2,-3.0,0.45,0.7,0.55,-0.02,0.0,0.0,0.0
1752859999742,101.0,7.0,-160.0,2.0,6.0,-10.0,0.9,2.3,-0.9,0.1,0.76,0.63,0.16,0.0,0.0,0.0
1752859999886,103.0,7.0,-154.0,2.0,5.0,-9.0,0.8,1.8,-1.2,0.07,0.77,0.62,0.15,0.0,0.0,0.0
1752859999930,101.0,5.0,-147.0,1.0,8.0,-10.0,0.3,2.0,-2.0,0.19,0.74,0.61,0.22,0.0,0.0,0.0
1752859999985,101.0,3.0,-138.0,0.0,8.0,-8.0,-0.5,1.3,-0.7,0.24,0.73,0.6,0.24,0.0,0.0,0.0
1752860000023,274.0,3.0,-134.0,0.0,8.0,-7.0,-0.6,1.1,0.0,0.29,0.72,0.58,0.26,0.0,0.0,0.0
1752860000056,275.0,3.0,-132.0,0.0,7.0,-7.0,-0.5,-0.4,-0.9,0.3,0.72,0.56,0.27,0.0,0.0,0.0
1752860000097,275.0,4.0,-132.0,1.0,7.0,-9.0,0.2,0.0,-2.0,0.3,0.73,0.55,0.27,0.0,0.0,0.0
1752860000143,272.0,6.0,-135.0,2.0,7.0,-8.0,0.4,0.2,-1.3,0.28,0.74,0.55,0.27,0.0,0.0,0.0
1752860000291,108.0,16.0,-155.0,3.0,1.0,-10.0,0.7,-3.2,-1.9,0.1,0.78,0.56,0.24,0.0,0.0,0.0
1752860000429,95.0,21.0,-171.0,3.0,3.0,-6.0,-0.9,1.7,2.9,0.04,0.78,0.58,0.23,0.0,0.0,0.0
1752860000470,89.0,19.0,-175.0,3.0,2.0,-8.0,-0.2,1.3,1.2,-0.09,0.7,0.7,0.15,0.0,0.0,0.0
1752860000509,85.0,17.0,-176.0,3.0,3.0,-10.0,0.7,2.1,-0.5,-0.09,0.67,0.72,0.13,0.0,0.0,0.0
1752860000549,81.0,14.0,-173.0,2.0,3.0,-9.0,0.2,1.8,0.8,-0.06,0.65,0.75,0.13,0.0,0.0,0.0
1752860000589,78.0,12.0,-167.0,2.0,5.0,-9.0,-0.3,2.0,0.4,-0.02,0.63,0.77,0.15,0.0,0.0,0.0
1752860000736,74.0,5.0,-150.0,1.0,6.0,-11.0,-0.1,1.1,-2.6,0.03,0.6,0.78,0.17,0.0,0.0,0.0
1752860000778,75.0,6.0,-152.0,1.0,3.0,-11.0,0.2,-1.1,-2.2,0.1,0.59,0.77,0.23,0.0,0.0,0.0
1752860000826,77.0,8.0,-157.0,2.0,6.0,-9.0,0.9,0.8,0.9,0.07,0.61,0.77,0.2,0.0,0.0,0.0
1752860000962,80.0,10.0,-159.0,1.0,4.0,-11.0,-0.4,0.4,-1.5,0.03,0.62,0.76,0.17,0.0,0.0,0.0
1752860001007,79.0,9.0,-158.0,2.0,4.0,-10.0,0.0,0.2,-1.1,0.06,0.63,0.75,0.2,0.0,0.0,0.0
1752860001049,79.0,9.0,-157.0,2.0,4.0,-9.0,0.0,0.5,0.2,0.06,0.62,0.75,0.2,0.0,0.0,0.0
1752860001094,79.0,9.0,-157.0,1.0,4.0,-8.0,-0.2,0.8,1.1,0.06,0.62,0.75,0.2,0.0,0.0,0.0
1752860001245,79.0,8.0,-159.0,-1.0,4.0,-9.0,-2.8,1.1,0.2,0.06,0.62,0.75,0.2,0.0,0.0,0.0
1752860001399,79.0,4.0,-146.0,1.0,7.0,-8.0,0.8,1.5,-0.0,0.16,0.61,0.74,0.24,0.0,0.0,0.0
1752860001432,80.0,2.0,-141.0,0.0,7.0,-8.0,-0.0,0.8,-0.3,0.2,0.61,0.72,0.26,0.0,0.0,0.0
1752860001480,81.0,1.0,-140.0,1.0,6.0,-9.0,0.5,-0.1,-0.8,0.22,0.61,0.71,0.26,0.0,0.0,0.0
1752860001528,83.0,1.0,-144.0,0.0,5.0,-8.0,0.1,-0.9,-0.2,0.2,0.63,0.71,0.24,0.0,0.0,0.0
1752860001563,83.0,2.0,-149.0,0.0,4.0,-9.0,-0.2,-1.0,-0.5,0.16,0.64,0.72,0.22,0.0,0.0,0.0
1752860001599,82.0,4.0,-154.0,1.0,3.0,-12.0,0.1,-1.0,-2.7,0.13,0.64,0.73,0.2,0.0,0.0,0.0
1752860001649,80.0,6.0,-157.0,-2.0,3.0,-12.0,-3.1,-0.7,-2.7,0.1,0.63,0.75,0.19,0.0,0.0,0.0
1752860001899,78.0,7.0,-152.0,1.0,3.0,-9.0,-0.3,-1.7,0.1,0.07,0.62,0.76,0.19,0.0,0.0,0.0
1752860001933,79.0,6.0,-151.0,1.0,5.0,-6.0,-0.2,0.4,2.6,0.12,0.61,0.75,0.23,0.0,0.0,0.0
1752860002004,78.0,4.0,-145.0,-0.0,7.0,-5.0,-1.1,1.1,2.2,0.15,0.6,0.74,0.25,0.0,0.0,0.0
1752860002021,78.0,1.0,-142.0,-0.0,6.0,-8.0,-0.4,0.2,-0.7,0.2,0.6,0.73,0.26,0.0,0.0,0.0
1752860002066,79.0,-1.0,-143.0,0.0,5.0,-9.0,0.3,-0.5,-0.8,0.21,0.6,0.73,0.24,0.0,0.0,0.0
1752860002141,77.0,-7.0,-143.0,-2.0,6.0,-8.0,-0.3,0.4,-0.4,0.24,0.6,0.74,0.21,0.0,0.0,0.0
1752860002190,76.0,-9.0,-143.0,-2.0,7.0,-8.0,-0.2,1.0,0.2,0.26,0.58,0.74,0.2,0.0,0.0,0.0
1752860002240,74.0,-11.0,-143.0,-3.0,7.0,-7.0,-0.8,1.1,0.6,0.27,0.57,0.75,0.19,0.0,0.0,0.0
1752860002388,74.0,-4.0,-151.0,-0.0,4.0,-10.0,-0.4,0.8,-2.2,0.27,0.57,0.76,0.19,0.0,0.0,0.0
1752860005006,97.0,-9.0,178.0,-2.0,1.0,-11.0,0.0,1.1,-1.0,0.04,0.74,0.67,-0.06,0.0,0.0,0.0
1752860005254,101.0,-11.0,179.0,-2.0,2.0,-10.0,-0.2,-0.2,-0.3,0.05,0.76,0.64,-0.08,0.0,0.0,0.0
1752860005292,132.0,-4.0,-174.0,-0.0,0.0,-10.0,0.1,-1.1,0.0,0.06,0.91,0.41,-0.01,0.0,0.0,0.0
1752860005342,136.0,-1.0,-162.0,2.0,3.0,-7.0,2.6,-0.4,1.8,0.12,0.92,0.38,0.04,0.0,0.0,0.0
1752860005375,136.0,-1.0,-149.0,1.0,3.0,-7.0,1.0,-2.2,1.3,0.24,0.9,0.36,0.08,0.0,0.0,0.0
1752860005409,137.0,-1.0,-148.0,-0.0,4.0,-9.0,-0.0,-0.6,-0.1,0.26,0.89,0.35,0.09,0.0,0.0,0.0
1752860005490,136.0,-2.0,-152.0,-0.0,5.0,-9.0,0.2,0.4,-0.3,0.24,0.9,0.36,0.08,0.0,0.0,0.0
1752860005689,122.0,-5.0,-161.0,-0.0,4.0,-9.0,0.6,0.7,0.2,0.19,0.91,0.37,0.06,0.0,0.0,0.0
1752860005937,106.0,-9.0,-159.0,-2.0,4.0,-9.0,-0.3,0.1,-0.4,0.19,0.84,0.51,0.05,0.0,0.0,0.0
1752860005978,94.0,-12.0,-165.0,-2.0,3.0,-9.0,-0.1,-0.4,-0.2,0.16,0.72,0.67,0.01,0.0,0.0,0.0
1752860006018,90.0,-12.0,-167.0,-2.0,3.0,-9.0,-0.1,0.5,-0.0,0.15,0.7,0.7,0.0,0.0,0.0,0.0
1752860007654,31.0,0.0,179.0,-1.0,0.0,-10.0,-0.6,0.2,0.1,-0.01,0.26,0.96,-0.01,0.0,0.0,0.0
1752860007704,35.0,0.0,179.0,-1.0,1.0,-9.0,-0.7,1.0,0.4,-0.01,0.29,0.96,-0.01,0.0,0.0,0.0
1752860007754,38.0,-1.0,178.0,-0.0,0.0,-10.0,0.1,0.9,-0.2,-0.0,0.33,0.94,-0.02,0.0,0.0,0.0
1752860007787,43.0,-2.0,177.0,-1.0,-0.0,-10.0,-0.2,0.1,-0.1,0.01,0.36,0.93,-0.03,0.0,0.0,0.0
1752860007837,48.0,-4.0,177.0,-1.0,-1.0,-11.0,-0.5,-0.6,-1.1,0.02,0.41,0.91,-0.04,0.0,0.0,0.0
1752860007871,52.0,-5.0,177.0,-1.0,0.0,-10.0,-0.7,0.8,-0.3,0.03,0.44,0.9,-0.04,0.0,0.0,0.0
1752860007921,57.0,-6.0,180.0,-2.0,0.0,-10.0,-0.8,0.2,-0.3,0.04,0.47,0.88,-0.03,0.0,0.0,0.0
1752860007954,62.0,-6.0,-178.0,-1.0,2.0,-10.0,-0.3,1.1,-0.2,0.05,0.51,0.86,-0.02,0.0,0.0,0.0
1752860008001,68.0,-6.0,-176.0,-2.0,2.0,-10.0,-0.8,1.3,0.1,0.06,0.55,0.84,-0.0,0.0,0.0,0.0
1752860008046,73.0,-5.0,-175.0,-1.0,1.0,-10.0,-0.6,0.3,-0.6,0.06,0.6,0.8,0.01,0.0,0.0,0.0
1752860008086,81.0,-4.0,-174.0,-2.0,1.0,-10.0,-0.9,-0.4,-0.5,0.06,0.64,0.77,0.02,0.0,0.0,0.0
1752860008147,88.0,-3.0,-173.0,-1.0,2.0,-10.0,-0.4,0.3,-0.0,0.06,0.69,0.72,0.03,0.0,0.0,0.0
1752860008170,94.0,-2.0,-171.0,-1.0,3.0,-10.0,-0.6,1.1,-0.3,0.07,0.73,0.68,0.05,0.0,0.0,0.0
1752860008212,102.0,0.0,-168.0,-0.0,2.0,-10.0,-0.4,0.3,-0.1,0.08,0.77,0.64,0.06,0.0,0.0,0.0
1752860008251,109.0,2.0,-167.0,0.0,3.0,-10.0,-0.1,0.8,-0.3,0.08,0.8,0.59,0.07,0.0,0.0,0.0
1752860008392,127.0,6.0,-152.0,2.0,4.0,-5.0,1.3,-1.1,2.9,0.08,0.84,0.54,0.08,0.0,0.0,0.0
1752860008437,130.0,5.0,-150.0,2.0,4.0,-9.0,1.0,-0.3,-0.3,0.22,0.87,0.41,0.15,0.0,0.0,0.0
1752860008481,130.0,4.0,-152.0,1.0,5.0,-10.0,0.5,0.6,-1.1,0.2,0.88,0.41,0.13,0.0,0.0,0.0
1752860008518,130.0,3.0,-156.0,1.0,4.0,-10.0,0.0,0.1,-1.0,0.18,0.88,0.42,0.12,0.0,0.0,0.0
1752860008560,129.0,3.0,-158.0,0.0,4.0,-10.0,-0.2,0.5,-0.5,0.16,0.89,0.42,0.11,0.0,0.0,0.0
1752860008609,129.0,4.0,-157.0,1.0,4.0,-9.0,0.0,0.5,-0.3,0.16,0.88,0.42,0.11,0.0,0.0,0.0
1752860008759,128.0,4.0,-156.0,1.0,4.0,-8.0,0.7,0.5,-0.1,0.17,0.88,0.43,0.12,0.0,0.0,0.0
1752860008896,127.0,5.0,-158.0,1.0,3.0,-10.0,0.3,-0.0,-0.4,0.15,0.88,0.44,0.12,0.0,0.0,0.0
1752860008946,124.0,5.0,-165.0,1.0,2.0,-10.0,-0.1,-0.7,-0.7,0.09,0.87,0.47,0.1,0.0,0.0,0.0
1752860009094,115.0,7.0,-172.0,2.0,2.0,-9.0,0.6,0.4,0.3,0.02,0.84,0.54,0.09,0.0,0.0,0.0
1752860009130,111.0,8.0,-174.0,2.0,2.0,-9.0,0.3,0.5,0.6,0.01,0.82,0.56,0.09,0.0,0.0,0.0
1752860009164,107.0,8.0,-176.0,1.0,1.0,-10.0,-0.2,0.0,-0.3,-0.01,0.8,0.59,0.08,0.0,0.0,0.0
1752860009213,103.0,8.0,-178.0,1.0,0.0,-10.0,0.1,-0.1,0.0,-0.03,0.79,0.62,0.06,0.0,0.0,0.0
1752860009454,78.0,4.0,178.0,-2.0,1.0,-7.0,-0.9,2.3,4.1,-0.03,0.77,0.64,0.05,0.0,0.0,0.0
1752860009497,74.0,4.0,174.0,0.0,-1.0,-12.0,-0.2,0.6,-1.9,-0.06,0.6,0.79,-0.02,0.0,0.0,0.0
1752860009547,69.0,2.0,175.0,-0.0,-1.0,-12.0,-0.6,-0.8,-1.9,-0.04,0.58,0.82,-0.03,0.0,0.0,0.0
1752860009580,64.0,2.0,179.0,-1.0,-0.0,-10.0,-1.4,0.0,-0.1,-0.02,0.54,0.84,-0.0,0.0,0.0,0.0
1752860009614,59.0,2.0,180.0,-1.0,1.0,-10.0,-1.3,1.1,0.2,-0.01,0.5,0.86,0.01,0.0,0.0,0.0
1752860009655,54.0,3.0,-180.0,-0.0,1.0,-10.0,-0.6,1.0,-0.5,-0.02,0.46,0.89,0.01,0.0,0.0,0.0
1752860009715,49.0,3.0,180.0,1.0,-0.0,-10.0,0.4,0.5,0.0,-0.02,0.42,0.91,0.01,0.0,0.0,0.0
1752860009755,43.0,4.0,179.0,0.0,2.0,-9.0,-0.6,1.8,0.5,-0.04,0.37,0.93,0.01,0.0,0.0,0.0
1752860009795,37.0,5.0,-180.0,1.0,1.0,-10.0,-0.0,1.2,-0.5,-0.04,0.32,0.94,0.01,0.0,0.0,0.0
1752860010014,25.0,5.0,-178.0,1.0,0.0,-11.0,0.1,-0.2,-0.8,-0.04,0.21,0.98,0.02,0.0,0.0,0.0
1752860010066,25.0,5.0,-177.0,0.0,1.0,-10.0,-0.6,0.3,0.0,-0.04,0.22,0.97,0.03,0.0,0.0,0.0
1752860010415,39.0,5.0,-178.0,-0.0,0.0,-10.0,-1.1,0.0,-0.4,-0.03,0.33,0.94,0.03,0.0,0.0,0.0
1752860010656,54.0,3.0,-178.0,-1.0,1.0,-10.0,-1.2,1.1,0.0,-0.04,0.36,0.93,0.02,0.0,0.0,0.0
1752860010748,83.0,1.0,180.0,-2.0,-0.0,-11.0,-1.9,-0.1,-1.0,-0.01,0.66,0.75,0.0,0.0,0.0,0.0
1752860010792,91.0,1.0,180.0,-1.0,0.0,-10.0,-1.9,0.5,-0.3,-0.01,0.7,0.71,0.01,0.0,0.0,0.0
1752860010835,99.0,2.0,179.0,-0.0,0.0,-11.0,-0.4,-0.1,-1.0,-0.02,0.76,0.65,0.01,0.0,0.0,0.0
1752860010876,106.0,3.0,180.0,0.0,0.0,-11.0,-0.4,-0.2,-1.0,-0.02,0.8,0.6,0.02,0.0,0.0,0.0
1752860010926,116.0,5.0,-179.0,1.0,-1.0,-11.0,-0.4,-1.4,-1.3,-0.02,0.84,0.55,0.04,0.0,0.0,0.0
1752860010960,122.0,7.0,-178.0,7.0,-14.0,-4.0,5.3,-15.4,5.6,-0.02,0.87,0.49,0.06,0.0,0.0,0.0
1752860011571,118.0,12.0,171.0,2.0,-2.0,-10.0,-0.2,-0.5,-0.3,-0.11,0.85,0.51,0.06,0.0,0.0,0.0
1752860011609,119.0,11.0,167.0,2.0,-2.0,-9.0,0.4,0.4,0.6,-0.14,0.85,0.51,0.03,0.0,0.0,0.0
1752860011658,118.0,10.0,164.0,1.0,-3.0,-9.0,-0.8,-0.6,-0.1,-0.16,0.85,0.51,0.01,0.0,0.0,0.0
1752860011799,110.0,9.0,164.0,1.0,-2.0,-9.0,0.0,0.4,-0.1,-0.16,0.81,0.56,-0.02,0.0,0.0,0.0
1752860011841,107.0,9.0,165.0,1.0,-2.0,-10.0,-0.1,0.6,-0.3,-0.15,0.79,0.59,-0.02,0.0,0.0,0.0
1752860011976,91.0,7.0,170.0,2.0,-2.0,-9.0,0.8,-0.0,0.0,-0.14,0.77,0.62,-0.02,0.0,0.0,0.0
1752860012025,86.0,6.0,173.0,1.0,0.0,-10.0,0.3,1.4,-0.0,-0.09,0.69,0.72,-0.01,0.0,0.0,0.0
1752860012065,82.0,5.0,175.0,1.0,1.0,-10.0,0.3,1.4,0.2,-0.07,0.66,0.75,-0.0,0.0,0.0,0.0
1752860012106,78.0,4.0,176.0,1.0,0.0,-10.0,0.2,0.8,-0.3,-0.05,0.63,0.77,-0.0,0.0,0.0,0.0
1752860012158,74.0,2.0,177.0,1.0,-1.0,-10.0,0.5,0.0,-0.6,-0.03,0.6,0.8,-0.01,0.0,0.0,0.0
1752860012200,70.0,0.0,177.0,-0.0,-0.0,-11.0,-0.2,0.1,-0.9,-0.02,0.58,0.82,-0.02,0.0,0.0,0.0
1752860012237,66.0,-1.0,177.0,-1.0,-0.0,-10.0,-0.8,0.4,0.0,-0.01,0.55,0.83,-0.03,0.0,0.0,0.0
1752860012280,62.0,-1.0,177.0,-1.0,0.0,-10.0,-1.2,0.9,0.1,-0.01,0.53,0.85,-0.03,0.0,0.0,0.0
1752860012311,59.0,-1.0,177.0,-1.0,-1.0,-11.0,-0.9,-0.9,-0.9,-0.0,0.5,0.87,-0.03,0.0,0.0,0.0
1752860012363,55.0,-1.0,178.0,-0.0,-0.0,-10.0,-0.7,0.4,-0.0,-0.0,0.47,0.88,-0.02,0.0,0.0,0.0
1752860012407,51.0,-0.0,180.0,-0.0,3.0,-8.0,-0.3,2.6,1.4,0.0,0.43,0.9,-0.0,0.0,0.0,0.0
1752860012449,47.0,-0.0,179.0,-1.0,1.0,-10.0,-0.9,0.1,-0.3,-0.0,0.41,0.91,-0.0,0.0,0.0,0.0
1752860012597,39.0,-3.0,176.0,-1.0,-0.0,-10.0,-0.0,0.4,-0.4,0.02,0.33,0.94,-0.04,0.0,0.0,0.0
1752860012629,36.0,-5.0,177.0,-1.0,1.0,-10.0,-0.3,1.0,-0.1,0.03,0.31,0.95,-0.04,0.0,0.0,0.0
1752860012774,32.0,-7.0,178.0,-2.0,0.0,-10.0,-0.9,0.6,-0.0,0.04,0.3,0.95,-0.03,0.0,0.0,0.0
1752860012821,32.0,-6.0,178.0,-1.0,1.0,-10.0,-0.3,1.1,-0.3,0.05,0.27,0.96,-0.03,0.0,0.0,0.0
1752860013061,37.0,-4.0,175.0,-2.0,-0.0,-10.0,-0.2,1.6,-0.0,0.04,0.28,0.96,-0.04,0.0,0.0,0.0
1752860013104,49.0,-2.0,173.0,-1.0,0.0,-10.0,-0.5,1.5,-0.1,-0.01,0.41,0.91,-0.07,0.0,0.0,0.0
1752860013151,55.0,-1.0,169.0,-0.0,-1.0,-10.0,0.1,1.2,-0.6,-0.03,0.45,0.89,-0.08,0.0,0.0,0.0
1752860013201,61.0,-1.0,166.0,-1.0,-2.0,-10.0,-0.7,0.1,-0.3,-0.06,0.5,0.86,-0.11,0.0,0.0,0.0
1752860013228,67.0,-0.0,162.0,-1.0,-4.0,-10.0,-0.9,-0.9,-0.3,-0.08,0.54,0.82,-0.13,0.0,0.0,0.0
1752860013271,74.0,0.0,160.0,-1.0,-3.0,-9.0,-0.8,0.6,-0.2,-0.1,0.58,0.79,-0.14,0.0,0.0,0.0
1752860013321,80.0,1.0,160.0,0.0,-1.0,-10.0,-0.1,1.9,-0.4,-0.11,0.62,0.76,-0.13,0.0,0.0,0.0
1752860013468,101.0,1.0,160.0,-1.0,-3.0,-9.0,-0.9,0.3,0.3,-0.12,0.66,0.73,-0.12,0.0,0.0,0.0
1752860013504,107.0,1.0,161.0,-1.0,-3.0,-9.0,-0.8,0.3,0.6,-0.14,0.79,0.58,-0.09,0.0,0.0,0.0
1752860013755,142.0,-5.0,170.0,-0.0,-0.0,-9.0,0.5,0.2,0.8,-0.14,0.82,0.54,-0.09,0.0,0.0,0.0
1752860013805,142.0,-6.0,175.0,-1.0,-1.0,-9.0,0.3,-0.6,0.3,-0.03,0.94,0.32,-0.06,0.0,0.0,0.0
1752860013837,143.0,-7.0,173.0,-1.0,-1.0,-11.0,0.2,0.1,-0.9,-0.04,0.94,0.32,-0.08,0.0,0.0,0.0
1752860013872,143.0,-7.0,169.0,-1.0,-2.0,-11.0,0.2,0.2,-1.6,-0.07,0.94,0.32,-0.09,0.0,0.0,0.0
1752860013914,142.0,-7.0,168.0,-1.0,-2.0,-10.0,0.5,-0.3,-0.8,-0.08,0.94,0.32,-0.09,0.0,0.0,0.0
1752860014077,138.0,-3.0,166.0,1.0,-2.0,-10.0,1.7,0.5,-0.3,-0.08,0.94,0.33,-0.09,0.0,0.0,0.0
1752860014111,137.0,-4.0,166.0,-1.0,-2.0,-10.0,0.0,0.0,-0.9,-0.1,0.92,0.37,-0.07,0.0,0.0,0.0
1752860014258,135.0,-3.0,166.0,1.0,-2.0,-10.0,0.8,0.1,-0.4,-0.1,0.92,0.38,-0.07,0.0,0.0,0.0
1752860014293,131.0,-0.0,165.0,0.0,-2.0,-9.0,0.6,0.8,0.3,-0.12,0.9,0.41,-0.06,0.0,0.0,0.0
1752860014341,130.0,1.0,165.0,1.0,-2.0,-9.0,0.9,0.5,0.3,-0.12,0.9,0.42,-0.05,0.0,0.0,0.0
1752860014379,129.0,1.0,165.0,1.0,-2.0,-10.0,0.7,0.2,-0.2,-0.12,0.9,0.43,-0.04,0.0,0.0,0.0
1752860014413,127.0,2.0,165.0,1.0,-2.0,-10.0,0.2,0.1,-0.2,-0.12,0.89,0.44,-0.04,0.0,0.0,0.0
1752860014464,125.0,2.0,165.0,1.0,-2.0,-9.0,0.2,0.4,0.1,-0.12,0.88,0.45,-0.04,0.0,0.0,0.0
1752860014515,123.0,2.0,166.0,1.0,-2.0,-9.0,0.6,0.1,0.0,-0.12,0.87,0.47,-0.04,0.0,0.0,0.0
1752860014548,120.0,2.0,167.0,0.0,-1.0,-10.0,0.1,0.7,-0.0,-0.11,0.86,0.49,-0.04,0.0,0.0,0.0
1752860014688,109.0,0.0,171.0,-0.0,-1.0,-10.0,-0.0,0.8,0.1,-0.1,0.85,0.51,-0.04,0.0,0.0,0.0
1752860014730,106.0,-1.0,172.0,-0.0,-1.0,-10.0,0.1,0.7,-0.2,-0.06,0.8,0.59,-0.05,0.0,0.0,0.0
1752860014765,102.0,-2.0,173.0,-0.0,-0.0,-10.0,0.0,0.7,-0.3,-0.04,0.78,0.62,-0.05,0.0,0.0,0.0
1752860014914,89.0,-5.0,174.0,-1.0,-0.0,-10.0,0.1,0.8,-0.4,-0.03,0.76,0.65,-0.05,0.0,0.0,0.0
1752860014965,84.0,-6.0,174.0,-1.0,-0.0,-10.0,0.3,1.3,-0.2,0.0,0.67,0.74,-0.08,0.0,0.0,0.0
1752860015676,75.0,-5.0,177.0,-1.0,0.0,-10.0,-0.1,0.8,-0.5,0.03,0.55,0.83,-0.04,0.0,0.0,0.0
1752860015710,78.0,-4.0,176.0,-1.0,-1.0,-10.0,-0.4,0.0,0.0,0.01,0.63,0.77,-0.05,0.0,0.0,0.0
1752860015760,83.0,-4.0,175.0,-1.0,-0.0,-10.0,-0.1,0.5,0.3,0.0,0.65,0.75,-0.06,0.0,0.0,0.0
1752860015896,95.0,-3.0,173.0,-1.0,-1.0,-11.0,0.0,0.3,-0.9,-0.02,0.74,0.67,-0.06,0.0,0.0,0.0
1752860015945,99.0,-2.0,170.0,-1.0,-2.0,-10.0,-0.1,-0.3,-0.3,-0.04,0.75,0.65,-0.07,0.0,0.0,0.0
1752860016075,108.0,3.0,167.0,1.0,-1.0,-9.0,1.0,1.0,0.3,-0.07,0.77,0.63,-0.07,0.0,0.0,0.0
1752860016116,111.0,4.0,165.0,3.0,-0.0,-9.0,2.4,2.5,0.0,-0.12,0.81,0.57,-0.04,0.0,0.0,0.0
1752860016261,113.0,5.0,162.0,1.0,-3.0,-11.0,2.2,-3.3,4.3,-0.15,0.82,0.55,-0.05,0.0,0.0,0.0
1752860016306,120.0,10.0,168.0,3.0,1.0,-9.0,1.6,2.8,0.0,-0.13,0.86,0.49,0.03,0.0,0.0,0.0
1752860016347,120.0,10.0,168.0,2.0,-1.0,-9.0,-0.0,-1.0,-0.2,-0.13,0.86,0.5,0.02,0.0,0.0,0.0
1752860016390,120.0,9.0,163.0,1.0,-5.0,-11.0,-0.5,-1.4,-1.6,-0.17,0.85,0.49,-0.01,0.0,0.0,0.0
1752860016426,119.0,9.0,160.0,2.0,-2.0,-10.0,0.4,1.2,-0.5,-0.18,0.85,0.5,-0.02,0.0,0.0,0.0
1752860016468,118.0,9.0,161.0,2.0,-2.0,-10.0,0.3,1.0,-0.5,-0.18,0.84,0.5,-0.02,0.0,0.0,0.0
1752860016617,116.0,11.0,161.0,3.0,-2.0,-9.0,0.7,1.0,0.3,-0.18,0.84,0.51,-0.01,0.0,0.0,0.0
1752860016668,115.0,12.0,160.0,3.0,-3.0,-9.0,0.6,0.6,0.2,-0.2,0.83,0.52,-0.0,0.0,0.0,0.0
1752860016801,114.0,10.0,161.0,2.0,-3.0,-9.0,0.1,0.8,0.0,-0.2,0.83,0.53,-0.01,0.0,0.0,0.0
1752860016939,114.0,3.0,161.0,1.0,-3.0,-10.0,0.0,0.5,-0.3,-0.17,0.82,0.54,-0.03,0.0,0.0,0.0
1752860016987,115.0,-0.0,160.0,0.0,-3.0,-10.0,0.3,0.1,-0.4,-0.15,0.83,0.53,-0.09,0.0,0.0,0.0
1752860017023,116.0,-3.0,160.0,-0.0,-3.0,-10.0,0.1,0.4,-0.5,-0.14,0.83,0.52,-0.11,0.0,0.0,0.0
1752860017271,116.0,-10.0,166.0,-2.0,-3.0,-10.0,-0.1,-0.3,-0.3,-0.13,0.84,0.52,-0.12,0.0,0.0,0.0
1752860017410,115.0,-10.0,168.0,-1.0,-1.0,-10.0,-0.4,0.0,-0.3,-0.04,0.84,0.53,-0.13,0.0,0.0,0.0
1752860017457,108.0,-6.0,178.0,-2.0,1.0,-10.0,-0.9,0.5,-0.1,0.01,0.81,0.59,-0.05,0.0,0.0,0.0
1752860017495,105.0,-4.0,-178.0,-1.0,1.0,-10.0,-0.5,1.0,-0.2,0.04,0.79,0.61,-0.01,0.0,0.0,0.0
1752860017528,101.0,-2.0,-173.0,0.0,3.0,-9.0,0.5,2.2,0.2,0.05,0.78,0.63,0.02,0.0,0.0,0.0
1752860017570,99.0,0.0,-171.0,1.0,3.0,-9.0,0.6,1.1,0.8,0.06,0.76,0.64,0.05,0.0,0.0,0.0
1752860017620,97.0,3.0,-170.0,1.0,2.0,-10.0,0.0,-0.1,-0.1,0.05,0.75,0.66,0.07,0.0,0.0,0.0
1752860017974,91.0,7.0,-167.0,0.0,3.0,-10.0,-0.1,0.2,-0.6,0.04,0.71,0.69,0.12,0.0,0.0,0.0
1752860018001,74.0,3.0,-165.0,0.0,3.0,-10.0,-0.3,0.3,-0.0,0.06,0.6,0.79,0.12,0.0,0.0,0.0
1752860018052,71.0,4.0,-164.0,3.0,5.0,-10.0,2.7,2.3,-0.4,0.06,0.58,0.8,0.13,0.0,0.0,0.0
1752860018080,67.0,5.0,-160.0,1.0,5.0,-9.0,0.2,1.6,-0.3,0.06,0.55,0.82,0.16,0.0,0.0,0.0
1752860018128,65.0,5.0,-158.0,1.0,5.0,-8.0,-0.4,1.7,1.5,0.07,0.53,0.83,0.18,0.0,0.0,0.0
1752860018179,63.0,6.0,-159.0,1.0,5.0,-9.0,-0.0,0.7,0.1,0.06,0.52,0.84,0.18,0.0,0.0,0.0
1752860018213,62.0,6.0,-160.0,1.0,3.0,-10.0,-0.4,-0.3,-0.4,0.04,0.51,0.84,0.18,0.0,0.0,0.0
1752860018263,61.0,6.0,-160.0,1.0,4.0,-9.0,-0.3,0.7,0.5,0.04,0.5,0.85,0.18,0.0,0.0,0.0
1752860018410,61.0,3.0,-165.0,0.0,2.0,-10.0,-0.1,-0.3,-0.5,0.05,0.51,0.85,0.13,0.0,0.0,0.0
1752860018442,63.0,0.0,-168.0,-0.0,2.0,-10.0,-0.4,-0.2,-0.2,0.05,0.52,0.85,0.1,0.0,0.0,0.0
1752860018580,70.0,-5.0,-172.0,-2.0,1.0,-10.0,-0.6,0.2,-0.2,0.06,0.53,0.84,0.08,0.0,0.0,0.0
1752860018830,79.0,-6.0,-176.0,-1.0,1.0,-10.0,-0.2,-0.1,-0.3,0.07,0.59,0.81,0.01,0.0,0.0,0.0
1752860018960,91.0,1.0,-178.0,1.0,1.0,-10.0,0.7,1.2,0.2,0.03,0.69,0.73,0.01,0.0,0.0,0.0
1752860019010,93.0,2.0,180.0,1.0,0.0,-10.0,0.2,0.4,0.1,-0.02,0.72,0.69,0.01,0.0,0.0,0.0
1752860019045,95.0,3.0,177.0,0.0,-0.0,-9.0,-0.2,0.7,0.9,-0.04,0.74,0.68,-0.0,0.0,0.0,0.0
1752860019080,98.0,2.0,172.0,1.0,-1.0,-10.0,0.1,0.9,0.1,-0.06,0.75,0.66,-0.02,0.0,0.0,0.0
1752860019222,108.0,-1.0,162.0,-0.0,-2.0,-10.0,0.0,0.8,-1.0,-0.07,0.76,0.64,-0.04,0.0,0.0,0.0
1752860019373,112.0,-2.0,158.0,-1.0,-4.0,-10.0,0.0,-0.0,-0.6,-0.14,0.81,0.56,-0.12,0.0,0.0,0.0
1752860019558,126.0,4.0,162.0,1.0,-4.0,-9.0,0.6,-1.0,-0.1,-0.2,0.87,0.44,-0.11,0.0,0.0,0.0
1752860019602,124.0,5.0,173.0,1.0,0.0,-10.0,1.2,0.5,0.1,-0.07,0.88,0.46,0.01,0.0,0.0,0.0
1752860019647,122.0,7.0,-173.0,2.0,2.0,-9.0,0.5,1.3,0.3,0.02,0.87,0.48,0.08,0.0,0.0,0.0
1752860019685,120.0,8.0,-156.0,1.0,5.0,-8.0,-0.1,0.8,1.0,0.12,0.85,0.49,0.15,0.0,0.0,0.0
1752860019733,119.0,9.0,-141.0,2.0,8.0,-6.0,0.3,1.6,1.1,0.22,0.82,0.48,0.22,0.0,0.0,0.0
1752860020457,307.0,-19.0,-46.0,-3.0,7.0,6.0,0.5,0.8,-0.7,0.81,0.25,0.33,0.41,0.0,0.0,0.0
1752860020504,307.0,-19.0,-46.0,-3.0,8.0,6.0,0.1,1.2,0.1,0.81,0.25,0.33,0.41,0.0,0.0,0.0
1752860020537,306.0,-18.0,-48.0,-3.0,8.0,7.0,0.0,0.6,0.7,0.81,0.26,0.33,0.41,0.0,0.0,0.0
1752860020590,304.0,-17.0,-51.0,-3.0,7.0,6.0,0.1,-0.5,-0.2,0.8,0.28,0.34,0.42,0.0,0.0,0.0
1752860020724,297.0,-10.0,-70.0,-2.0,9.0,2.0,-0.1,0.1,-0.3,0.78,0.31,0.34,0.42,0.0,0.0,0.0
1752860020771,293.0,-7.0,-80.0,-1.0,11.0,1.0,-0.4,0.4,-0.2,0.65,0.48,0.41,0.42,0.0,0.0,0.0
1752860020915,267.0,11.0,-125.0,4.0,-1.0,-3.0,3.6,-5.3,1.6,0.58,0.55,0.43,0.42,0.0,0.0,0.0
1752860020958,264.0,12.0,-134.0,2.0,8.0,-6.0,0.4,0.6,0.0,0.26,0.78,0.49,0.3,0.0,0.0,0.0
1752860020992,116.0,12.0,-140.0,2.0,7.0,-9.0,0.4,0.1,-2.3,0.23,0.79,0.5,0.27,0.0,0.0,0.0
1752860021139,117.0,12.0,-147.0,3.0,6.0,-7.0,0.7,0.5,0.7,0.2,0.8,0.5,0.25,0.0,0.0,0.0
1752860021376,118.0,13.0,-163.0,3.0,1.0,-10.0,0.7,-0.1,-0.4,0.16,0.82,0.5,0.23,0.0,0.0,0.0
1752860021426,119.0,13.0,-176.0,3.0,1.0,-10.0,0.5,0.2,0.1,-0.02,0.86,0.5,0.12,0.0,0.0,0.0
1752860021577,120.0,13.0,-177.0,2.0,3.0,-10.0,0.1,0.8,-0.3,-0.03,0.86,0.5,0.11,0.0,0.0,0.0
1752860021623,119.0,12.0,-160.0,2.0,5.0,-10.0,-0.0,1.2,-0.8,0.07,0.85,0.5,0.17,0.0,0.0,0.0
1752860021760,279.0,9.0,-110.0,2.0,2.0,-4.0,0.6,-5.0,-0.5,0.44,0.7,0.42,0.37,0.0,0.0,0.0
1752860021793,281.0,8.0,-105.0,2.0,12.0,-2.0,0.9,2.8,0.8,0.47,0.68,0.41,0.39,0.0,0.0,0.0
1752860021844,283.0,6.0,-97.0,2.0,11.0,-1.0,0.9,1.1,-0.5,0.51,0.64,0.4,0.41,0.0,0.0,0.0
1752860021877,284.0,5.0,-87.0,0.0,8.0,2.0,-0.4,-1.3,0.7,0.56,0.6,0.38,0.44,0.0,0.0,0.0
1752860021925,286.0,4.0,-75.0,2.0,8.0,3.0,1.0,-1.7,0.1,0.61,0.53,0.35,0.47,0.0,0.0,0.0
1752860022077,295.0,-5.0,-35.0,-5.0,6.0,10.0,-1.5,-1.3,-0.2,0.69,0.44,0.29,0.5,0.0,0.0,0.0
1752860022109,298.0,-7.0,-25.0,-1.0,2.0,8.0,1.1,-1.1,-1.0,0.84,0.15,0.16,0.5,0.0,0.0,0.0
1752860022246,308.0,-9.0,6.0,-1.0,-1.0,9.0,0.2,0.6,-0.2,0.86,0.1,0.13,0.48,0.0,0.0,0.0
1752860022298,310.0,-10.0,14.0,-3.0,0.0,10.0,-1.5,2.6,0.8,0.9,-0.13,0.03,0.42,0.0,0.0,0.0
1752860022337,311.0,-10.0,21.0,-3.0,-4.0,8.0,-1.7,0.2,-1.3,0.9,-0.18,0.01,0.41,0.0,0.0,0.0
1752860022467,315.0,-5.0,57.0,2.0,-9.0,2.0,2.1,0.0,-2.2,0.88,-0.26,-0.02,0.39,0.0,0.0,0.0
1752860022507,317.0,-2.0,69.0,2.0,-10.0,0.0,1.4,-1.3,-2.3,0.77,-0.53,-0.19,0.3,0.0,0.0,0.0
1752860022544,317.0,-3.0,69.0,-2.0,-12.0,6.0,-1.5,-2.6,1.2,0.77,-0.53,-0.18,0.3,0.0,0.0,0.0
1752860022587,317.0,-3.0,67.0,-1.0,-8.0,8.0,-0.1,0.7,3.8,0.77,-0.53,-0.18,0.31,0.0,0.0,0.0
1752860022640,316.0,-3.0,66.0,-0.0,-6.0,-2.0,0.4,2.8,-6.4,0.78,-0.51,-0.17,0.31,0.0,0.0,0.0
1752860022677,316.0,-2.0,66.0,1.0,-8.0,3.0,1.5,-0.4,-0.9,0.78,-0.51,-0.18,0.32,0.0,0.0,0.0
1752860022717,315.0,-3.0,67.0,-3.0,-12.0,1.0,-2.1,-2.9,-2.4,0.77,-0.52,-0.18,0.32,0.0,0.0,0.0
1752860022760,316.0,-2.0,67.0,0.0,-8.0,7.0,1.1,-0.5,0.1,0.77,-0.52,-0.19,0.31,0.0,0.0,0.0
1752860022805,316.0,-2.0,67.0,-1.0,-11.0,1.0,-0.5,1.5,-1.0,0.77,-0.52,-0.19,0.31,0.0,0.0,0.0
1752860022837,317.0,-2.0,68.0,1.0,-8.0,2.0,1.3,1.2,-1.6,0.77,-0.52,-0.19,0.31,0.0,0.0,0.0
1752860022895,317.0,-1.0,69.0,1.0,-8.0,2.0,0.8,0.4,-0.5,0.77,-0.53,-0.19,0.3,0.0,0.0,0.0
1752860022929,317.0,-1.0,72.0,-0.0,-10.0,3.0,0.0,-0.4,0.0,0.76,-0.55,-0.2,0.3,0.0,0.0,0.0
1752860023069,319.0,1.0,81.0,2.0,-8.0,-1.0,1.4,1.9,-2.2,0.75,-0.56,-0.21,0.29,0.0,0.0,0.0
1752860023116,320.0,2.0,89.0,2.0,-7.0,-1.0,0.9,1.6,0.8,0.67,-0.65,-0.26,0.24,0.0,0.0,0.0
1752860023151,321.0,2.0,97.0,1.0,-11.0,-2.0,0.3,-1.1,-0.9,0.63,-0.7,-0.28,0.22,0.0,0.0,0.0
1752860023188,322.0,2.0,101.0,0.0,-11.0,-3.0,-0.2,-1.1,-1.3,0.6,-0.72,-0.28,0.21,0.0,0.0,0.0
1752860023229,323.0,2.0,102.0,1.0,-10.0,-2.0,0.2,0.0,0.4,0.6,-0.72,-0.27,0.2,0.0,0.0,0.0
1752860023477,329.0,5.0,123.0,1.0,-7.0,-6.0,0.7,0.5,-0.1,0.58,-0.74,-0.28,0.19,0.0,0.0,0.0
1752860023527,137.0,7.0,154.0,2.0,-3.0,-10.0,0.8,0.3,-0.8,0.23,-0.91,-0.35,0.02,0.0,0.0,0.0
1752860023564,138.0,7.0,164.0,2.0,-2.0,-10.0,0.0,0.0,0.0,0.17,-0.92,-0.36,-0.0,0.0,0.0,0.0
1752860023712,139.0,7.0,175.0,3.0,-4.0,-10.0,1.2,-2.5,-0.2,0.06,-0.93,-0.35,-0.04,0.0,0.0,0.0
1752860023750,138.0,7.0,177.0,1.0,0.0,-10.0,0.3,0.6,-0.3,0.05,-0.93,-0.36,-0.04,0.0,0.0,0.0
1752860023890,132.0,6.0,-159.0,2.0,5.0,-9.0,0.8,0.6,0.5,0.03,-0.93,-0.37,-0.05,0.0,0.0,0.0
1752860023937,128.0,5.0,-137.0,-0.0,11.0,-1.0,-0.6,3.5,5.3,-0.27,-0.85,-0.41,-0.18,0.0,0.0,0.0
1752860023975,299.0,3.0,-133.0,0.0,6.0,-6.0,-0.2,-1.3,0.7,-0.35,-0.82,-0.4,-0.2,0.0,0.0,0.0
1752860024033,298.0,3.0,-132.0,1.0,8.0,-7.0,0.8,1.0,-0.7,-0.35,-0.82,-0.41,-0.21,0.0,0.0,0.0
1752860024625,118.0,9.0,-144.0,2.0,7.0,-6.0,0.7,1.4,1.7,-0.23,-0.81,-0.48,-0.23,0.0,0.0,0.0
1752860024674,118.0,9.0,-144.0,2.0,8.0,-7.0,-0.3,2.2,0.5,-0.22,-0.81,-0.49,-0.23,0.0,0.0,0.0
1752860024720,118.0,10.0,-145.0,1.0,9.0,-8.0,-0.6,1.9,0.1,-0.21,-0.81,-0.49,-0.23,0.0,0.0,0.0
1752860024749,118.0,11.0,-151.0,2.0,5.0,-9.0,0.1,1.0,0.2,-0.16,-0.83,-0.49,-0.21,0.0,0.0,0.0
1752860024797,120.0,13.0,-164.0,3.0,0.0,-10.0,0.2,-1.7,-0.8,-0.08,-0.85,-0.49,-0.18,0.0,0.0,0.0
1752860024831,121.0,15.0,-175.0,5.0,0.0,-9.0,2.5,-0.3,0.5,0.01,-0.86,-0.49,-0.14,0.0,0.0,0.0
1752860024880,121.0,15.0,180.0,2.0,1.0,-8.0,0.7,-0.5,0.3,0.06,-0.86,-0.49,-0.12,0.0,0.0,0.0
1752860024929,121.0,15.0,177.0,4.0,-0.0,-13.0,1.3,0.3,-3.6,0.08,-0.86,-0.49,-0.1,0.0,0.0,0.0
1752860024971,121.0,15.0,176.0,3.0,0.0,-9.0,0.5,1.5,0.3,0.09,-0.86,-0.49,-0.09,0.0,0.0,0.0
1752860025114,120.0,15.0,167.0,3.0,0.0,-10.0,0.2,2.0,-1.3,0.16,-0.85,-0.49,-0.06,0.0,0.0,0.0
1752860025155,120.0,15.0,156.0,3.0,-3.0,-9.0,0.1,1.1,-0.5,0.22,-0.84,-0.49,-0.03,0.0,0.0,0.0
1752860025291,326.0,8.0,94.0,2.0,-4.0,2.0,0.8,5.6,1.6,0.32,-0.82,-0.47,0.02,0.0,0.0,0.0
1752860025347,320.0,5.0,82.0,2.0,-6.0,-2.0,1.5,3.7,-3.4,0.7,-0.6,-0.28,0.26,0.0,0.0,0.0
1752860025385,311.0,0.0,73.0,1.0,-8.0,2.0,0.9,1.0,-0.9,0.73,-0.55,-0.25,0.32,0.0,0.0,0.0
1752860025433,307.0,-3.0,70.0,-0.0,-12.0,2.0,-0.1,-2.7,-1.2,0.73,-0.53,-0.23,0.36,0.0,0.0,0.0
1752860025473,304.0,-5.0,67.0,-1.0,-12.0,3.0,0.3,-2.7,-1.1,0.73,-0.51,-0.21,0.39,0.0,0.0,0.0
1752860025521,302.0,-6.0,65.0,0.0,-10.0,2.0,1.1,-0.7,-2.0,0.74,-0.5,-0.2,0.41,0.0,0.0,0.0
1752860025559,303.0,-6.0,66.0,-0.0,-9.0,2.0,0.9,0.2,-1.8,0.74,-0.51,-0.21,0.4,0.0,0.0,0.0
1752860025594,305.0,-4.0,70.0,0.0,-9.0,2.0,0.6,0.4,-1.2,0.73,-0.52,-0.22,0.38,0.0,0.0,0.0
1752860025633,308.0,-2.0,74.0,-0.0,-9.0,2.0,0.2,0.7,-0.9,0.72,-0.55,-0.24,0.36,0.0,0.0,0.0
1752860025779,312.0,0.0,84.0,1.0,-10.0,0.0,0.4,-0.1,-0.8,0.71,-0.57,-0.25,0.34,0.0,0.0,0.0
1752860025927,313.0,2.0,85.0,1.0,-10.0,-0.0,0.6,0.2,-1.1,0.68,-0.61,-0.28,0.3,0.0,0.0,0.0
1752860025967,313.0,2.0,85.0,1.0,-10.0,-0.0,0.5,0.2,-1.0,0.67,-0.61,-0.29,0.3,0.0,0.0,0.0
1752860026204,313.0,2.0,85.0,0.0,-9.0,1.0,0.2,0.4,-0.4,0.68,-0.61,-0.29,0.3,0.0,0.0,0.0
1752860026244,312.0,2.0,84.0,0.0,-10.0,1.0,0.2,0.2,-0.4,0.68,-0.6,-0.29,0.3,0.0,0.0,0.0
1752860026294,312.0,2.0,84.0,0.0,-10.0,1.0,0.1,0.2,-0.5,0.68,-0.6,-0.29,0.3,0.0,0.0,0.0
1752860026342,313.0,2.0,85.0,1.0,-10.0,0.0,0.3,0.2,-0.7,0.68,-0.61,-0.29,0.3,0.0,0.0,0.0
1752860026384,313.0,2.0,85.0,1.0,-10.0,0.0,0.1,0.2,0.0,0.67,-0.61,-0.29,0.29,0.0,0.0,0.0
1752860026435,313.0,2.0,86.0,1.0,-9.0,0.0,0.2,0.3,-0.6,0.67,-0.61,-0.3,0.29,0.0,0.0,0.0
1752860026476,313.0,3.0,86.0,1.0,-9.0,0.0,0.1,0.3,-0.5,0.67,-0.61,-0.3,0.29,0.0,0.0,0.0
1752860026621,315.0,4.0,89.0,1.0,-9.0,-1.0,0.2,0.4,-0.9,0.67,-0.62,-0.3,0.29,0.0,0.0,0.0
1752860026670,316.0,4.0,90.0,1.0,-10.0,-0.0,0.0,0.1,-0.0,0.66,-0.63,-0.31,0.27,0.0,0.0,0.0
1752860026703,316.0,4.0,90.0,1.0,-10.0,-0.0,0.1,0.1,-0.2,0.66,-0.63,-0.31,0.27,0.0,0.0,0.0
1752860026755,315.0,4.0,89.0,1.0,-10.0,-0.0,0.3,0.2,-0.5,0.66,-0.63,-0.31,0.27,0.0,0.0,0.0
1752860026787,315.0,3.0,88.0,1.0,-10.0,0.0,0.2,0.3,-0.3,0.66,-0.63,-0.31,0.28,0.0,0.0,0.0
1752860026925,313.0,3.0,85.0,1.0,-9.0,1.0,0.2,0.3,-0.3,0.67,-0.62,-0.3,0.28,0.0,0.0,0.0
1752860026971,312.0,2.0,84.0,1.0,-9.0,1.0,0.1,0.3,-0.2,0.68,-0.6,-0.29,0.3,0.0,0.0,0.0
1752860027225,312.0,2.0,83.0,1.0,-9.0,1.0,0.1,0.3,-0.3,0.68,-0.6,-0.29,0.3,0.0,0.0,0.0
1752860027478,312.0,2.0,82.0,0.0,-9.0,1.0,0.2,0.3,-0.2,0.69,-0.59,-0.29,0.31,0.0,0.0,0.0
1752860027607,312.0,1.0,81.0,0.0,-9.0,1.0,0.1,0.3,-0.1,0.69,-0.59,-0.28,0.31,0.0,0.0,0.0
1752860027649,311.0,1.0,81.0,0.0,-9.0,1.0,0.0,0.3,-0.1,0.69,-0.59,-0.28,0.31,0.0,0.0,0.0
1752860027900,311.0,1.0,81.0,0.0,-9.0,1.0,0.0,0.3,-0.3,0.69,-0.59,-0.28,0.31,0.0,0.0,0.0
1752860027941,312.0,1.0,81.0,1.0,-9.0,1.0,0.4,0.3,-0.4,0.69,-0.58,-0.28,0.31,0.0,0.0,0.0
1752860027984,312.0,1.0,81.0,0.0,-10.0,1.0,0.2,0.2,-0.2,0.69,-0.58,-0.28,0.31,0.0,0.0,0.0
1752860028057,312.0,2.0,81.0,0.0,-10.0,2.0,-0.2,-0.1,0.2,0.69,-0.59,-0.28,0.31,0.0,0.0,0.0
1752860028174,313.0,2.0,82.0,1.0,-10.0,1.0,0.4,0.0,-0.3,0.69,-0.59,-0.29,0.31,0.0,0.0,0.0
1752860028217,313.0,3.0,82.0,1.0,-10.0,1.0,0.5,0.1,-0.4,0.69,-0.59,-0.29,0.3,0.0,0.0,0.0
1752860028354,313.0,3.0,82.0,1.0,-10.0,1.0,0.2,0.0,-0.0,0.69,-0.59,-0.29,0.3,0.0,0.0,0.0
1752860028701,313.0,3.0,82.0,1.0,-10.0,1.0,0.5,-0.0,-0.2,0.69,-0.59,-0.29,0.3,0.0,0.0,0.0
1752860028751,314.0,4.0,84.0,1.0,-10.0,1.0,0.4,-0.1,-0.2,0.69,-0.59,-0.3,0.29,0.0,0.0,0.0
1752860029351,314.0,5.0,84.0,2.0,-9.0,0.0,0.8,0.2,-0.8,0.68,-0.59,-0.32,0.29,0.0,0.0,0.0
1752860029398,314.0,5.0,84.0,1.0,-9.0,1.0,0.3,0.3,-0.1,0.68,-0.59,-0.32,0.29,0.0,0.0,0.0
1752860029635,318.0,8.0,90.0,1.0,-10.0,-0.0,0.0,0.1,-0.5,0.68,-0.59,-0.32,0.29,0.0,0.0,0.0
1752860029670,319.0,8.0,90.0,2.0,-9.0,-1.0,0.3,0.3,-0.6,0.66,-0.62,-0.34,0.25,0.0,0.0,0.0
1752860029717,319.0,8.0,90.0,2.0,-9.0,-0.0,0.1,0.1,0.3,0.66,-0.62,-0.34,0.24,0.0,0.0,0.0
1752860029754,320.0,8.0,91.0,1.0,-10.0,0.0,-0.1,-0.1,0.1,0.66,-0.63,-0.34,0.24,0.0,0.0,0.0
1752860029804,320.0,8.0,90.0,1.0,-10.0,0.0,-0.3,-0.3,0.3,0.66,-0.63,-0.33,0.24,0.0,0.0,0.0
1752860029939,320.0,8.0,91.0,1.0,-10.0,-0.0,0.0,0.0,-0.1,0.66,-0.63,-0.33,0.24,0.0,0.0,0.0
1752860030088,320.0,8.0,91.0,2.0,-10.0,-1.0,0.1,0.2,-0.0,0.66,-0.63,-0.33,0.24,0.0,0.0,0.0
1752860030138,319.0,8.0,91.0,2.0,-10.0,-0.0,0.3,0.0,-0.3,0.66,-0.63,-0.34,0.24,0.0,0.0,0.0
1752860030187,319.0,8.0,91.0,2.0,-10.0,-0.0,0.4,0.2,-0.4,0.66,-0.63,-0.34,0.24,0.0,0.0,0.0
1752860030232,320.0,8.0,91.0,1.0,-9.0,-0.0,0.1,0.3,-0.2,0.66,-0.63,-0.33,0.24,0.0,0.0,0.0
1752860030378,320.0,7.0,91.0,2.0,-10.0,1.0,1.0,-0.1,-0.2,0.66,-0.63,-0.33,0.24,0.0,0.0,0.0
1752860030422,321.0,7.0,92.0,2.0,-9.0,-0.0,1.1,0.3,-0.1,0.65,-0.64,-0.33,0.23,0.0,0.0,0.0
1752860030458,320.0,7.0,92.0,2.0,-10.0,1.0,0.5,-0.6,1.3,0.65,-0.64,-0.33,0.24,0.0,0.0,0.0
1752860030601,317.0,7.0,93.0,1.0,-10.0,-1.0,-0.2,-0.1,-0.4,0.66,-0.63,-0.32,0.25,0.0,0.0,0.0
1752860030658,316.0,7.0,96.0,1.0,-10.0,-2.0,0.3,-0.1,-0.8,0.63,-0.65,-0.36,0.25,0.0,0.0,0.0
1752860030798,310.0,4.0,103.0,0.0,-8.0,-5.0,0.1,3.3,0.0,0.61,-0.65,-0.37,0.25,0.0,0.0,0.0
1752860030840,310.0,3.0,105.0,3.0,-10.0,-3.0,2.3,-0.2,-0.5,0.55,-0.7,-0.38,0.26,0.0,0.0,0.0
1752860030884,309.0,1.0,105.0,-1.0,-9.0,-2.0,-0.5,0.1,0.3,0.55,-0.71,-0.35,0.26,0.0,0.0,0.0
1752860031032,309.0,-2.0,102.0,1.0,-8.0,-3.0,-0.2,-1.3,1.2,0.56,-0.71,-0.32,0.27,0.0,0.0,0.0
1752860031083,327.0,1.0,112.0,-2.0,-10.0,-0.0,-2.0,-0.1,3.6,0.53,-0.79,-0.26,0.17,0.0,0.0,0.0
1752860031128,333.0,3.0,113.0,-2.0,-8.0,-1.0,-1.9,0.2,3.6,0.54,-0.8,-0.24,0.13,0.0,0.0,0.0
1752860031162,336.0,4.0,115.0,-1.0,-9.0,-1.0,-1.7,-0.6,3.0,0.53,-0.81,-0.23,0.11,0.0,0.0,0.0
1752860031205,337.0,4.0,117.0,-2.0,-10.0,-2.0,-2.7,-1.2,2.1,0.51,-0.82,-0.24,0.1,0.0,0.0,0.0
1752860031257,336.0,5.0,121.0,2.0,22.0,14.0,1.5,30.4,19.3,0.49,-0.83,-0.26,0.1,0.0,0.0,0.0
1752860031291,331.0,3.0,123.0,-1.0,-13.0,-11.0,3.4,-5.1,-13.4,0.46,-0.83,-0.28,0.12,0.0,0.0,0.0
1752860031343,322.0,1.0,127.0,1.0,-1.0,-14.0,0.9,7.1,-7.3,0.43,-0.84,-0.31,0.15,0.0,0.0,0.0
1752860031585,287.0,-8.0,134.0,-2.0,-5.0,-6.0,-0.3,1.7,1.5,0.39,-0.84,-0.35,0.18,0.0,0.0,0.0
1752860031633,279.0,-11.0,135.0,-4.0,-7.0,-5.0,-1.8,0.6,1.1,0.3,-0.83,-0.39,0.25,0.0,0.0,0.0
1752860031676,272.0,-14.0,133.0,-4.0,-7.0,-7.0,-1.0,0.2,-0.2,0.29,-0.83,-0.38,0.28,0.0,0.0,0.0
1752860031811,258.0,-20.0,127.0,-3.0,-6.0,-6.0,-0.0,1.7,-1.0,0.29,-0.82,-0.38,0.3,0.0,0.0,0.0
1752860031850,258.0,-21.0,124.0,-3.0,-6.0,-6.0,0.2,1.2,-1.1,0.3,-0.78,-0.39,0.38,0.0,0.0,0.0
1752860031989,258.0,-21.0,122.0,-1.0,-6.0,-4.0,1.9,3.5,1.2,0.32,-0.77,-0.39,0.39,0.0,0.0,0.0
1752860032138,277.0,-15.0,105.0,-4.0,-11.0,0.0,-1.2,-1.3,2.2,0.46,-0.71,-0.34,0.4,0.0,0.0,0.0
1752860032288,289.0,-14.0,91.0,-3.0,-10.0,1.0,0.9,1.1,0.6,0.5,-0.69,-0.32,0.41,0.0,0.0,0.0
1752860032331,293.0,-15.0,88.0,0.0,-12.0,-1.0,1.4,-2.3,-0.1,0.59,-0.66,-0.23,0.4,0.0,0.0,0.0
1752860032383,290.0,-16.0,86.0,-2.0,-11.0,2.0,1.6,-1.0,0.8,0.6,-0.65,-0.22,0.42,0.0,0.0,0.0
1752860032411,289.0,-17.0,84.0,-2.0,-9.0,3.0,0.8,0.1,1.1,0.6,-0.64,-0.21,0.43,0.0,0.0,0.0
1752860032553,284.0,-21.0,80.0,-5.0,-8.0,5.0,-1.8,1.2,2.9,0.62,-0.62,-0.2,0.44,0.0,0.0,0.0
1752860032596,281.0,-22.0,78.0,-3.0,-9.0,5.0,0.4,0.1,3.2,0.6,-0.61,-0.18,0.49,0.0,0.0,0.0
1752860032644,277.0,-23.0,75.0,-5.0,-11.0,3.0,-1.7,-0.7,-0.5,0.59,-0.59,-0.19,0.51,0.0,0.0,0.0
1752860032694,274.0,-24.0,70.0,-6.0,-7.0,5.0,-1.8,1.3,1.8,0.59,-0.56,-0.18,0.55,0.0,0.0,0.0
1752860032725,271.0,-24.0,70.0,-4.0,-7.0,4.0,-0.1,0.3,1.8,0.57,-0.56,-0.19,0.57,0.0,0.0,0.0
1752860032769,267.0,-26.0,67.0,-5.0,-13.0,3.0,-1.9,-4.3,0.1,0.57,-0.54,-0.18,0.6,0.0,0.0,0.0
1752860032808,264.0,-26.0,65.0,-6.0,-8.0,7.0,-1.9,0.1,2.9,0.56,-0.52,-0.18,0.62,0.0,0.0,0.0
1752860032856,262.0,-25.0,67.0,-3.0,-13.0,2.0,0.8,-4.5,-0.9,0.54,-0.53,-0.21,0.62,0.0,0.0,0.0
1752860032992,255.0,-21.0,71.0,-4.0,-8.0,5.0,0.0,0.0,0.0,0.53,-0.52,-0.23,0.63,0.0,0.0,0.0
1752860033037,253.0,-19.0,71.0,-5.0,-8.0,3.0,4.4,-1.2,-3.3,0.48,-0.49,-0.32,0.65,0.0,0.0,0.0
1752860033080,252.0,-17.0,70.0,-5.0,-7.0,3.0,1.6,1.7,-3.0,0.48,-0.47,-0.34,0.66,0.0,0.0,0.0
1752860033684,232.0,-22.0,74.0,-3.0,-7.0,2.0,0.9,1.7,-0.1,0.34,-0.46,-0.4,0.71,0.0,0.0,0.0
1752860033734,232.0,-22.0,75.0,-3.0,-7.0,2.0,0.5,1.3,-0.3,0.34,-0.46,-0.41,0.71,0.0,0.0,0.0
1752860033771,231.0,-22.0,74.0,-4.0,-8.0,1.0,0.2,0.5,-1.1,0.34,-0.45,-0.41,0.72,0.0,0.0,0.0
1752860033805,230.0,-23.0,73.0,-3.0,-9.0,1.0,0.4,0.0,-1.4,0.34,-0.45,-0.4,0.72,0.0,0.0,0.0
1752860033854,230.0,-23.0,72.0,-4.0,-9.0,3.0,0.3,-0.4,-0.1,0.34,-0.46,-0.39,0.72,0.0,0.0,0.0
1752860034091,228.0,-28.0,73.0,-4.0,-9.0,2.0,0.8,-0.7,-0.1,0.34,-0.46,-0.39,0.73,0.0,0.0,0.0
1752860034134,227.0,-29.0,72.0,-4.0,-9.0,3.0,1.0,-1.1,0.6,0.32,-0.49,-0.36,0.73,0.0,0.0,0.0
1752860034216,227.0,-29.0,74.0,-5.0,-9.0,5.0,-0.3,-0.2,2.3,0.32,-0.5,-0.36,0.72,0.0,0.0,0.0
1752860034256,227.0,-29.0,75.0,-5.0,-8.0,4.0,0.1,0.2,2.1,0.31,-0.5,-0.37,0.72,0.0,0.0,0.0
1752860034628,211.0,-24.0,78.0,-3.0,-7.0,2.0,0.7,1.1,-0.1,0.2,-0.41,-0.49,0.74,0.0,0.0,0.0
1752860034669,208.0,-24.0,78.0,-3.0,-8.0,1.0,1.1,0.5,-0.8,0.18,-0.4,-0.5,0.75,0.0,0.0,0.0
1752860034716,204.0,-24.0,77.0,-3.0,-8.0,1.0,0.7,0.1,-0.7,0.16,-0.38,-0.5,0.76,0.0,0.0,0.0
1752860034766,200.0,-24.0,77.0,-3.0,-9.0,1.0,0.8,-0.5,-1.3,0.14,-0.36,-0.52,0.76,0.0,0.0,0.0
1752860034803,197.0,-24.0,77.0,-3.0,-9.0,1.0,0.7,-0.8,-1.3,0.12,-0.35,-0.53,0.77,0.0,0.0,0.0
1752860034944,189.0,-23.0,78.0,-3.0,-9.0,1.0,1.1,-0.0,-0.9,0.1,-0.33,-0.54,0.77,0.0,0.0,0.0
1752860034986,186.0,-24.0,79.0,-3.0,-9.0,1.0,0.9,-0.1,-0.8,0.04,-0.29,-0.57,0.77,0.0,0.0,0.0
1752860035020,184.0,-24.0,79.0,-3.0,-9.0,1.0,0.7,-0.3,-1.0,0.03,-0.29,-0.58,0.77,0.0,0.0,0.0
1752860035161,182.0,-24.0,80.0,-4.0,-9.0,0.0,0.3,-0.1,-0.8,0.01,-0.28,-0.58,0.76,0.0,0.0,0.0
1752860035203,177.0,-24.0,85.0,-4.0,-9.0,0.0,0.3,0.1,-0.6,-0.02,-0.27,-0.62,0.74,0.0,0.0,0.0
1752860035353,172.0,-26.0,88.0,-4.0,-9.0,-0.0,-0.1,-0.3,-0.5,-0.02,-0.27,-0.63,0.73,0.0,0.0,0.0
1752860035394,171.0,-26.0,88.0,-5.0,-9.0,-0.0,-0.2,-0.2,-0.9,-0.06,-0.26,-0.65,0.72,0.0,0.0,0.0
1752860035445,170.0,-27.0,88.0,-5.0,-8.0,-1.0,-0.1,0.3,-0.8,-0.06,-0.26,-0.65,0.71,0.0,0.0,0.0
1752860035588,166.0,-31.0,91.0,-5.0,-8.0,-1.0,0.0,0.1,-0.8,-0.07,-0.26,-0.65,0.71,0.0,0.0,0.0
1752860035638,166.0,-32.0,92.0,-5.0,-8.0,-1.0,0.1,-0.1,-0.2,-0.09,-0.31,-0.65,0.69,0.0,0.0,0.0
1752860035772,167.0,-37.0,92.0,-5.0,-8.0,0.0,0.9,-0.0,0.4,-0.09,-0.32,-0.64,0.69,0.0,0.0,0.0
1752860035821,168.0,-37.0,91.0,-5.0,-7.0,-0.0,0.6,0.9,-0.0,-0.07,-0.37,-0.61,0.7,0.0,0.0,0.0
1752860035854,170.0,-37.0,91.0,-6.0,-8.0,-0.0,-0.1,-0.4,-0.2,-0.07,-0.37,-0.61,0.7,0.0,0.0,0.0
1752860035901,172.0,-37.0,90.0,-7.0,-8.0,0.0,-0.7,-0.3,0.2,-0.05,-0.38,-0.6,0.7,0.0,0.0,0.0
1752860036055,179.0,-38.0,91.0,-6.0,-6.0,1.0,0.2,1.1,1.3,-0.04,-0.39,-0.59,0.7,0.0,0.0,0.0
1752860036099,181.0,-40.0,90.0,-6.0,-4.0,-0.0,0.3,1.1,1.4,0.01,-0.45,-0.54,0.71,0.0,0.0,0.0
1752860036141,180.0,-43.0,90.0,-7.0,-6.0,1.0,-0.0,0.6,1.0,0.0,-0.49,-0.51,0.71,0.0,0.0,0.0
1752860036187,178.0,-47.0,91.0,-7.0,-5.0,1.0,-0.1,1.2,1.1,-0.01,-0.51,-0.5,0.7,0.0,0.0,0.0
1752860036239,175.0,-50.0,92.0,-8.0,-5.0,0.0,-0.9,1.7,0.4,-0.03,-0.53,-0.48,0.7,0.0,0.0,0.0
1752860036275,170.0,-55.0,95.0,-8.0,-4.0,-1.0,0.1,1.9,0.0,-0.06,-0.55,-0.47,0.69,0.0,0.0,0.0
1752860036314,165.0,-58.0,99.0,-8.0,-4.0,-1.0,0.4,0.8,0.4,-0.08,-0.57,-0.46,0.67,0.0,0.0,0.0
1752860036356,159.0,-62.0,104.0,-8.0,-4.0,-0.0,0.8,0.6,0.9,-0.11,-0.58,-0.46,0.66,0.0,0.0,0.0
1752860036399,153.0,-65.0,109.0,-9.0,-4.0,-1.0,0.1,0.7,-0.7,-0.15,-0.6,-0.46,0.64,0.0,0.0,0.0
1752860036448,147.0,-68.0,115.0,-8.0,-3.0,-0.0,0.8,0.2,1.4,-0.19,-0.61,-0.45,0.62,0.0,0.0,0.0
1752860036593,128.0,-74.0,146.0,-8.0,-2.0,-4.0,1.0,0.1,-0.7,-0.21,-0.62,-0.45,0.6,0.0,0.0,0.0
1752860036635,124.0,-74.0,155.0,-8.0,-1.0,-3.0,0.5,-0.0,0.1,-0.29,-0.65,-0.46,0.54,0.0,0.0,0.0
1752860036675,120.0,-73.0,164.0,-9.0,-2.0,-2.0,0.1,-0.9,0.3,-0.3,-0.66,-0.46,0.52,0.0,0.0,0.0
1752860036727,118.0,-73.0,170.0,-9.0,-3.0,-2.0,0.0,-2.7,0.6,-0.31,-0.66,-0.45,0.51,0.0,0.0,0.0
1752860036761,115.0,-72.0,176.0,-10.0,-3.0,-2.0,-0.3,-2.9,1.4,-0.32,-0.67,-0.45,0.5,0.0,0.0,0.0
1752860036813,112.0,-72.0,178.0,-11.0,-2.0,-1.0,-1.7,-1.9,1.9,-0.32,-0.67,-0.46,0.49,0.0,0.0,0.0
1752860036848,109.0,-71.0,-180.0,-10.0,-1.0,-4.0,0.1,-1.8,-0.8,-0.33,-0.66,-0.47,0.47,0.0,0.0,0.0
1752860036900,106.0,-70.0,-178.0,-10.0,-1.0,-3.0,-0.4,-1.4,0.0,-0.34,-0.66,-0.48,0.46,0.0,0.0,0.0
1752860037726,111.0,-66.0,-164.0,-9.0,2.0,-3.0,0.4,0.3,-0.1,-0.31,-0.74,-0.38,0.46,0.0,0.0,0.0
1752860037866,123.0,-66.0,-174.0,-9.0,1.0,-5.0,0.2,0.7,-0.8,-0.3,-0.74,-0.38,0.46,0.0,0.0,0.0
1752860038292,143.0,-63.0,-177.0,-8.0,0.0,-3.0,0.6,-0.2,1.5,-0.18,-0.8,-0.28,0.49,0.0,0.0,0.0
1752860038334,144.0,-63.0,-177.0,-9.0,0.0,-3.0,-0.0,0.0,1.4,-0.16,-0.82,-0.24,0.5,0.0,0.0,0.0
1752860038373,146.0,-64.0,-177.0,-9.0,0.0,-4.0,0.1,0.0,0.1,-0.16,-0.82,-0.23,0.5,0.0,0.0,0.0
1752860038511,150.0,-64.0,-177.0,-8.0,1.0,-4.0,0.5,0.4,0.4,-0.15,-0.82,-0.22,0.51,0.0,0.0,0.0
1752860038669,155.0,-62.0,-180.0,-8.0,0.0,-3.0,0.4,0.5,1.9,-0.13,-0.83,-0.19,0.51,0.0,0.0,0.0
1752860038909,163.0,-66.0,180.0,-9.0,-1.0,-4.0,-0.1,-1.4,-0.5,-0.08,-0.83,-0.13,0.54,0.0,0.0,0.0
1752860039060,174.0,-69.0,177.0,-8.0,-1.0,-3.0,1.4,-0.5,0.4,-0.07,-0.83,-0.11,0.55,0.0,0.0,0.0
1752860039110,177.0,-71.0,175.0,-8.0,-1.0,-3.0,1.6,-0.4,0.4,-0.01,-0.81,-0.05,0.58,0.0,0.0,0.0
1752860039244,180.0,-72.0,171.0,-8.0,-0.0,-3.0,-0.3,0.9,-0.6,-0.0,-0.81,-0.04,0.59,0.0,0.0,0.0
1752860039290,183.0,-74.0,163.0,-9.0,0.0,-3.0,0.2,0.7,0.3,0.02,-0.79,-0.05,0.61,0.0,0.0,0.0
1752860039327,185.0,-74.0,162.0,-9.0,-0.0,-2.0,0.7,0.5,0.7,0.02,-0.79,-0.04,0.61,0.0,0.0,0.0
1752860039468,192.0,-75.0,161.0,-9.0,-1.0,-1.0,0.7,-0.3,1.2,0.03,-0.79,-0.03,0.61,0.0,0.0,0.0
1752860039510,194.0,-75.0,161.0,-9.0,-1.0,-1.0,0.9,-0.6,1.2,0.07,-0.79,0.02,0.61,0.0,0.0,0.0
1752860039658,201.0,-75.0,160.0,-10.0,-1.0,-3.0,-0.7,0.0,-0.8,0.08,-0.79,0.04,0.61,0.0,0.0,0.0
1752860056039,5.0,-76.0,-145.0,-9.0,1.0,-3.0,0.5,-0.6,-0.5,0.63,0.13,0.76,-0.02,0.0,0.0,0.0
1752860056157,13.0,-72.0,-136.0,-9.0,2.0,-2.0,-0.1,-1.9,0.6,0.62,0.26,0.74,-0.07,0.0,0.0,0.0
1752860056550,39.0,-85.0,4.0,-9.0,0.0,-1.0,0.7,0.9,-0.9,0.68,0.2,0.68,-0.21,0.0,0.0,0.0
1752860056592,40.0,-85.0,5.0,-9.0,-0.0,0.0,0.6,0.6,-0.2,0.68,0.18,0.67,-0.25,0.0,0.0,0.0
1752860056629,39.0,-84.0,5.0,-9.0,-0.0,-0.0,0.6,0.9,-0.7,0.68,0.17,0.67,-0.25,0.0,0.0,0.0
1752860056673,38.0,-83.0,6.0,-10.0,-0.0,-0.0,0.2,0.7,-0.7,0.69,0.16,0.67,-0.24,0.0,0.0,0.0
1752860056712,36.0,-83.0,5.0,-10.0,-1.0,0.0,0.2,0.1,-0.3,0.69,0.15,0.67,-0.23,0.0,0.0,0.0
1752860056758,35.0,-84.0,5.0,-9.0,-1.0,0.0,0.4,-0.8,0.1,0.7,0.15,0.67,-0.22,0.0,0.0,0.0
1752860056904,32.0,-85.0,4.0,-9.0,-2.0,0.0,0.4,-1.7,-0.5,0.7,0.15,0.67,-0.2,0.0,0.0,0.0
1752860056948,33.0,-84.0,5.0,-9.0,-2.0,0.0,0.6,-0.9,-0.6,0.7,0.14,0.67,-0.21,0.0,0.0,0.0
1752860056992,32.0,-84.0,5.0,-9.0,-1.0,0.0,1.4,-2.1,-0.8,0.69,0.13,0.68,-0.2,0.0,0.0,0.0
1752860057029,31.0,-84.0,6.0,-10.0,-2.0,-0.0,0.3,-0.3,-1.0,0.69,0.12,0.68,-0.19,0.0,0.0,0.0
1752860057074,29.0,-84.0,6.0,-10.0,-1.0,-2.0,-0.3,0.0,-2.0,0.69,0.1,0.69,-0.18,0.0,0.0,0.0
1752860057113,27.0,-83.0,93.0,-10.0,-0.0,-1.0,-0.1,1.0,-0.5,0.69,0.08,0.7,-0.17,0.0,0.0,0.0
1752860057354,19.0,-82.0,162.0,-11.0,1.0,-1.0,-0.9,0.9,0.6,0.68,0.06,0.71,-0.15,0.0,0.0,0.0
1752860057401,17.0,-81.0,176.0,-10.0,-0.0,-2.0,0.4,-0.6,-0.6,0.65,0.1,0.75,-0.1,0.0,0.0,0.0
1752860057443,15.0,-81.0,-175.0,-9.0,-1.0,-2.0,0.2,-1.4,-0.1,0.64,0.11,0.75,-0.09,0.0,0.0,0.0
1752860057481,14.0,-81.0,-166.0,-10.0,-1.0,-1.0,0.2,-1.8,-0.1,0.65,0.12,0.75,-0.08,0.0,0.0,0.0
1752860057664,15.0,-80.0,-149.0,-8.0,0.0,-2.0,1.2,-1.0,-0.0,0.65,0.16,0.74,-0.08,0.0,0.0,0.0
1752860057711,21.0,-79.0,-140.0,-9.0,0.0,-1.0,0.6,-0.9,0.1,0.64,0.23,0.72,-0.12,0.0,0.0,0.0
1752860057761,21.0,-79.0,-140.0,-9.0,0.0,-2.0,0.3,-0.6,-0.6,0.64,0.23,0.72,-0.12,0.0,0.0,0.0
1752860057806,22.0,-80.0,-141.0,-9.0,0.0,-1.0,0.3,-0.6,-0.2,0.65,0.23,0.72,-0.13,0.0,0.0,0.0
1752860057854,24.0,-81.0,-143.0,-9.0,0.0,-1.0,0.4,-0.4,0.0,0.65,0.23,0.72,-0.13,0.0,0.0,0.0
1752860057894,25.0,-81.0,-145.0,-10.0,1.0,-2.0,0.0,0.0,0.0,0.65,0.23,0.72,-0.14,0.0,0.0,0.0
1752860058034,25.0,-82.0,-147.0,-11.0,2.0,-2.0,-1.0,1.2,-0.7,0.65,0.22,0.72,-0.15,0.0,0.0,0.0
1752860058172,26.0,-83.0,-158.0,-9.0,-1.0,-1.0,0.6,-0.9,0.3,0.65,0.21,0.72,-0.15,0.0,0.0,0.0
1752860058222,24.0,-83.0,-161.0,-9.0,-0.0,-2.0,0.2,-0.4,-0.6,0.65,0.19,0.72,-0.14,0.0,0.0,0.0
1752860058270,24.0,-84.0,-178.0,-9.0,0.0,-2.0,0.7,-0.1,-1.0,0.65,0.18,0.72,-0.14,0.0,0.0,0.0
1752860058315,24.0,-84.0,-178.0,-9.0,0.0,-2.0,0.6,0.0,-0.6,0.65,0.18,0.72,-0.14,0.0,0.0,0.0
1752860058463,17.0,-84.0,179.0,-9.0,-1.0,-2.0,0.8,-0.3,-1.2,0.65,0.17,0.72,-0.14,0.0,0.0,0.0
1752860058607,16.0,-82.0,178.0,-10.0,1.0,-2.0,0.1,0.6,-0.4,0.66,0.09,0.74,-0.09,0.0,0.0,0.0
1752860058757,15.0,-81.0,-176.0,-12.0,0.0,-2.0,-2.3,-0.1,-0.4,0.64,0.11,0.75,-0.09,0.0,0.0,0.0
1752860058904,12.0,-74.0,-158.0,-9.0,-0.0,-2.0,4.0,8.7,-5.1,0.63,0.12,0.77,-0.06,0.0,0.0,0.0
1752860058946,13.0,-72.0,-157.0,-9.0,3.0,-2.0,-0.3,2.9,1.3,0.6,0.19,0.78,-0.07,0.0,0.0,0.0
1752860058986,12.0,-70.0,-154.0,-10.0,0.0,-1.0,-0.9,-1.4,1.6,0.59,0.21,0.78,-0.06,0.0,0.0,0.0
1752860059026,11.0,-68.0,-151.0,-10.0,0.0,-2.0,-1.4,-1.4,1.0,0.58,0.23,0.78,-0.06,0.0,0.0,0.0
1752860059066,11.0,-67.0,-149.0,-9.0,1.0,-2.0,0.3,-0.9,1.0,0.57,0.25,0.78,-0.05,0.0,0.0,0.0
1752860059108,10.0,-66.0,-147.0,-8.0,2.0,-2.0,0.6,0.1,1.2,0.57,0.27,0.78,-0.05,0.0,0.0,0.0
1752860059360,254.0,-62.0,-139.0,-8.0,2.0,-5.0,0.4,-0.6,-1.1,0.57,0.28,0.77,-0.04,0.0,0.0,0.0
1752860059514,250.0,-61.0,-141.0,-8.0,3.0,-3.0,0.4,0.1,0.4,0.34,-0.47,0.68,0.45,0.0,0.0,0.0
1752860059664,251.0,-58.0,-144.0,-8.0,3.0,-3.0,-0.3,0.0,1.7,0.32,-0.48,0.68,0.45,0.0,0.0,0.0
1752860059708,250.0,-58.0,-143.0,-9.0,1.0,-3.0,0.0,0.0,0.0,0.31,-0.47,0.7,0.44,0.0,0.0,0.0
1752860059853,252.0,-57.0,-142.0,-9.0,3.0,-4.0,-0.3,-0.5,0.1,0.31,-0.47,0.7,0.44,0.0,0.0,0.0
1752860059938,253.0,-58.0,-143.0,-8.0,3.0,-4.0,0.2,0.3,0.4,0.32,-0.46,0.71,0.43,0.0,0.0,0.0
1752860060031,252.0,-58.0,-142.0,-8.0,3.0,-4.0,0.0,0.3,-0.3,0.32,-0.46,0.7,0.44,0.0,0.0,0.0
1752860060089,251.0,-58.0,-141.0,-8.0,3.0,-5.0,0.0,-0.0,-0.5,0.32,-0.46,0.7,0.44,0.0,0.0,0.0
1752860060669,237.0,-62.0,-137.0,-8.0,3.0,-4.0,0.8,-0.3,-0.2,0.27,-0.54,0.61,0.51,0.0,0.0,0.0
1752860060718,239.0,-62.0,-138.0,-8.0,3.0,-4.0,1.0,0.1,-0.2,0.28,-0.54,0.62,0.5,0.0,0.0,0.0
1752860060904,235.0,-60.0,-140.0,-8.0,3.0,-3.0,0.4,-0.1,0.7,0.26,-0.56,0.62,0.49,0.0,0.0,0.0
1752860061050,233.0,-60.0,-140.0,-8.0,3.0,-3.0,0.2,-0.1,-0.7,0.25,-0.57,0.61,0.5,0.0,0.0,0.0
1752860061089,230.0,-62.0,-139.0,-9.0,3.0,-4.0,0.0,0.2,-0.4,0.24,-0.59,0.58,0.51,0.0,0.0,0.0
1752860061237,229.0,-62.0,-139.0,-9.0,3.0,-3.0,-0.5,-0.1,0.5,0.24,-0.6,0.57,0.52,0.0,0.0,0.0
1752860061378,226.0,-63.0,-138.0,-9.0,3.0,-3.0,0.0,0.0,0.0,0.22,-0.61,0.55,0.53,0.0,0.0,0.0
1752860061628,221.0,-63.0,-132.0,-8.0,4.0,-3.0,1.0,0.2,-0.5,0.21,-0.61,0.53,0.55,0.0,0.0,0.0
1752860061678,215.0,-62.0,-124.0,-8.0,4.0,-3.0,0.8,-0.1,-0.5,0.18,-0.6,0.52,0.58,0.0,0.0,0.0
1752860061728,215.0,-61.0,-124.0,-8.0,4.0,-3.0,0.5,-0.4,-0.5,0.18,-0.59,0.54,0.57,0.0,0.0,0.0
1752860061779,217.0,-60.0,-125.0,-8.0,3.0,-3.0,0.3,-0.8,0.0,0.19,-0.58,0.55,0.57,0.0,0.0,0.0
1752860061817,217.0,-59.0,-126.0,-8.0,3.0,-3.0,0.5,-1.0,0.4,0.19,-0.58,0.56,0.56,0.0,0.0,0.0
1752860061868,217.0,-59.0,-126.0,-8.0,3.0,-2.0,0.7,-0.7,0.0,0.19,-0.58,0.57,0.56,0.0,0.0,0.0
1752860061920,218.0,-59.0,-127.0,-8.0,4.0,-3.0,0.7,-0.4,0.5,0.19,-0.57,0.57,0.56,0.0,0.0,0.0
1752860061958,220.0,-59.0,-128.0,-8.0,4.0,-3.0,0.6,-0.0,0.0,0.2,-0.57,0.57,0.55,0.0,0.0,0.0
1752860062009,221.0,-59.0,-129.0,-8.0,4.0,-3.0,0.3,0.1,0.2,0.2,-0.57,0.58,0.55,0.0,0.0,0.0
1752860062044,222.0,-59.0,-130.0,-8.0,4.0,-3.0,0.2,0.2,-0.1,0.21,-0.57,0.58,0.54,0.0,0.0,0.0
1752860062097,224.0,-60.0,-131.0,-8.0,4.0,-3.0,0.2,0.3,-0.1,0.21,-0.57,0.58,0.54,0.0,0.0,0.0
1752860062145,224.0,-60.0,-132.0,-8.0,4.0,-3.0,0.3,0.3,0.1,0.22,-0.57,0.58,0.53,0.0,0.0,0.0
1752860062172,225.0,-60.0,-132.0,-8.0,4.0,-3.0,-0.1,0.3,0.1,0.22,-0.57,0.58,0.53,0.0,0.0,0.0
1752860062221,225.0,-61.0,-132.0,-9.0,4.0,-3.0,0.0,0.2,0.1,0.22,-0.57,0.58,0.54,0.0,0.0,0.0
1752860062370,225.0,-63.0,-130.0,-9.0,3.0,-3.0,0.1,-0.1,0.1,0.22,-0.58,0.57,0.54,0.0,0.0,0.0
1752860062626,225.0,-64.0,-129.0,-8.0,3.0,-3.0,0.9,-0.8,-0.3,0.23,-0.58,0.55,0.55,0.0,0.0,0.0
1752860062678,225.0,-64.0,-128.0,-8.0,3.0,-3.0,0.6,-0.6,-0.6,0.23,-0.58,0.55,0.56,0.0,0.0,0.0
1752860062809,226.0,-64.0,-133.0,-9.0,3.0,-2.0,-0.3,0.2,0.9,0.23,-0.58,0.55,0.55,0.0,0.0,0.0
1752860062962,226.0,-65.0,-132.0,-9.0,3.0,-3.0,0.2,0.2,0.0,0.23,-0.6,0.54,0.54,0.0,0.0,0.0
1752860063012,226.0,-65.0,-132.0,-9.0,3.0,-3.0,0.3,0.1,-0.1,0.24,-0.59,0.54,0.55,0.0,0.0,0.0
1752860063160,226.0,-65.0,-130.0,-9.0,3.0,-3.0,0.3,-0.2,-0.2,0.24,-0.59,0.54,0.55,0.0,0.0,0.0
1752860063310,226.0,-66.0,-130.0,-9.0,3.0,-2.0,0.1,-0.1,-0.0,0.24,-0.59,0.53,0.56,0.0,0.0,0.0
1752860063663,225.0,-67.0,-128.0,-9.0,3.0,-2.0,0.2,-0.1,0.1,0.24,-0.59,0.52,0.56,0.0,0.0,0.0
1752860063917,226.0,-69.0,-131.0,-9.0,3.0,-2.0,0.1,0.1,-0.0,0.24,-0.6,0.51,0.57,0.0,0.0,0.0
1752860064062,226.0,-71.0,-131.0,-9.0,3.0,-2.0,0.2,0.1,-0.1,0.25,-0.61,0.49,0.57,0.0,0.0,0.0
1752860064312,225.0,-71.0,-131.0,-9.0,3.0,-2.0,-0.1,0.2,0.0,0.24,-0.62,0.48,0.58,0.0,0.0,0.0
1752860064663,221.0,-70.0,-133.0,-9.0,2.0,-2.0,-0.2,-0.3,0.3,0.23,-0.63,0.47,0.58,0.0,0.0,0.0
1752860065022,218.0,-71.0,-130.0,-9.0,3.0,-2.0,0.4,-0.0,-0.4,0.21,-0.65,0.44,0.59,0.0,0.0,0.0
1752860065267,215.0,-71.0,-130.0,-8.0,2.0,-2.0,1.3,0.2,-0.0,0.2,-0.65,0.43,0.6,0.0,0.0,0.0
1752860065309,212.0,-72.0,-135.0,-9.0,2.0,-3.0,-0.2,-0.4,-0.2,0.17,-0.68,0.38,0.6,0.0,0.0,0.0
1752860065356,211.0,-72.0,-139.0,-10.0,2.0,-2.0,-0.5,-0.4,-0.2,0.17,-0.69,0.37,0.6,0.0,0.0,0.0
1752860065393,210.0,-73.0,-143.0,-11.0,1.0,-2.0,-1.2,-0.8,0.0,0.16,-0.71,0.35,0.6,0.0,0.0,0.0
1752860065427,209.0,-73.0,-148.0,-11.0,1.0,-2.0,-1.2,-0.8,0.4,0.16,-0.72,0.32,0.6,0.0,0.0,0.0
1752860065473,208.0,-74.0,-153.0,-10.0,-0.0,-2.0,-0.8,-1.5,0.2,0.15,-0.73,0.3,0.59,0.0,0.0,0.0
1752860065524,207.0,-74.0,-159.0,-10.0,-3.0,-4.0,-0.8,-4.2,-1.3,0.14,-0.75,0.26,0.59,0.0,0.0,0.0
1752860065567,206.0,-75.0,-166.0,-10.0,-1.0,-1.0,-1.1,-0.8,2.4,0.14,-0.76,0.24,0.59,0.0,0.0,0.0
1752860065610,205.0,-75.0,-170.0,-10.0,1.0,-0.0,0.1,0.4,1.9,0.13,-0.77,0.21,0.59,0.0,0.0,0.0
1752860065657,206.0,-74.0,-173.0,-10.0,2.0,-2.0,-0.3,1.4,0.4,0.13,-0.77,0.2,0.59,0.0,0.0,0.0
1752860065691,207.0,-74.0,-174.0,-9.0,1.0,-2.0,0.3,0.3,0.5,0.14,-0.77,0.21,0.59,0.0,0.0,0.0
1752860065728,208.0,-74.0,-175.0,-10.0,1.0,-2.0,0.0,0.0,0.0,0.14,-0.77,0.21,0.59,0.0,0.0,0.0
1752860065777,209.0,-74.0,-176.0,-10.0,1.0,-2.0,-0.5,0.1,0.4,0.15,-0.77,0.22,0.58,0.0,0.0,0.0
1752860065828,210.0,-74.0,-176.0,-11.0,0.0,-2.0,-1.3,0.1,1.1,0.16,-0.77,0.22,0.58,0.0,0.0,0.0
1752860066420,178.0,-67.0,-176.0,-9.0,-0.0,-3.0,-0.2,-0.4,1.1,-0.01,-0.84,0.01,0.55,0.0,0.0,0.0
1752860066466,169.0,-67.0,-173.0,-10.0,2.0,-1.0,0.0,0.0,0.0,-0.04,-0.84,-0.03,0.55,0.0,0.0,0.0
1752860066512,160.0,-67.0,-170.0,-10.0,1.0,-2.0,-0.9,-0.3,1.3,-0.1,-0.83,-0.08,0.55,0.0,0.0,0.0
1752860066545,155.0,-68.0,-167.0,-10.0,1.0,-3.0,0.0,0.0,0.0,-0.12,-0.82,-0.11,0.55,0.0,0.0,0.0
1752860066593,156.0,-69.0,-165.0,-10.0,1.0,-4.0,-0.6,0.5,-0.9,-0.12,-0.82,-0.1,0.56,0.0,0.0,0.0
1752860066635,156.0,-69.0,-163.0,-9.0,0.0,-3.0,0.3,-0.7,0.2,-0.12,-0.82,-0.08,0.56,0.0,0.0,0.0
1752860066877,156.0,-68.0,-155.0,-10.0,2.0,-2.0,-1.3,0.6,1.2,-0.12,-0.81,-0.07,0.56,0.0,0.0,0.0
1752860066928,160.0,-68.0,-156.0,-9.0,2.0,-3.0,0.3,0.2,0.0,-0.1,-0.82,-0.01,0.56,0.0,0.0,0.0
1752860067065,181.0,-65.0,-166.0,-10.0,1.0,-4.0,0.0,0.0,0.0,-0.06,-0.83,0.04,0.56,0.0,0.0,0.0
1752860067214,185.0,-66.0,-169.0,-8.0,2.0,-3.0,0.8,1.3,0.1,0.03,-0.83,0.11,0.54,0.0,0.0,0.0
1752860067388,179.0,-68.0,-159.0,-9.0,1.0,-3.0,-0.1,-0.3,-0.1,0.02,-0.82,0.11,0.56,0.0,0.0,0.0
1752860067431,176.0,-68.0,-154.0,-9.0,1.0,-3.0,-0.1,-0.2,0.4,-0.02,-0.81,0.12,0.58,0.0,0.0,0.0
1752860067481,174.0,-68.0,-150.0,-10.0,6.0,-3.0,-0.8,4.5,-0.1,-0.03,-0.81,0.12,0.58,0.0,0.0,0.0
1752860067531,174.0,-67.0,-148.0,-9.0,-2.0,-3.0,0.5,-5.4,-0.1,-0.03,-0.8,0.13,0.58,0.0,0.0,0.0
1752860067581,176.0,-65.0,-147.0,-9.0,1.0,-3.0,0.0,-0.8,0.9,-0.02,-0.8,0.17,0.57,0.0,0.0,0.0
1752860067722,179.0,-65.0,-149.0,-9.0,2.0,-3.0,-0.0,-0.8,0.4,-0.01,-0.8,0.19,0.57,0.0,0.0,0.0
1752860067765,182.0,-66.0,-150.0,-9.0,2.0,-3.0,-0.8,0.7,1.0,0.01,-0.8,0.19,0.57,0.0,0.0,0.0
1752860067849,186.0,-66.0,-154.0,-9.0,3.0,-3.0,-0.3,1.1,0.3,0.03,-0.8,0.2,0.56,0.0,0.0,0.0
1752860067882,187.0,-65.0,-155.0,-9.0,2.0,-4.0,0.0,0.7,0.1,0.03,-0.8,0.21,0.56,0.0,0.0,0.0
1752860068033,186.0,-65.0,-155.0,-9.0,2.0,-3.0,-0.3,-0.1,0.9,0.03,-0.81,0.21,0.55,0.0,0.0,0.0
1752860068075,183.0,-63.0,-153.0,-9.0,2.0,-4.0,-0.3,-0.1,0.3,0.01,-0.81,0.21,0.55,0.0,0.0,0.0
1752860068227,182.0,-62.0,-151.0,-9.0,2.0,-4.0,0.1,-0.4,0.2,0.02,-0.81,0.22,0.55,0.0,0.0,0.0
1752860068368,180.0,-62.0,-152.0,-9.0,1.0,-3.0,-0.0,-0.3,0.7,0.0,-0.81,0.21,0.54,0.0,0.0,0.0
1752860068419,180.0,-62.0,-154.0,-9.0,2.0,-3.0,0.1,-0.5,0.3,0.0,-0.82,0.2,0.54,0.0,0.0,0.0
1752860068453,182.0,-61.0,-156.0,-9.0,2.0,-3.0,-0.2,0.1,0.8,0.01,-0.82,0.2,0.53,0.0,0.0,0.0
1752860068588,186.0,-61.0,-161.0,-9.0,0.0,-4.0,-0.5,-0.8,0.4,0.02,-0.83,0.2,0.53,0.0,0.0,0.0
1752860068639,186.0,-61.0,-163.0,-9.0,1.0,-4.0,-1.0,0.5,-0.0,0.03,-0.83,0.18,0.52,0.0,0.0,0.0
1752860068686,188.0,-61.0,-166.0,-9.0,2.0,-5.0,-0.7,0.6,-0.1,0.04,-0.84,0.17,0.51,0.0,0.0,0.0
1752860068940,186.0,-63.0,-171.0,-8.0,2.0,-4.0,0.4,0.1,-1.3,0.04,-0.84,0.17,0.51,0.0,0.0,0.0
1752860068974,187.0,-63.0,-171.0,-8.0,1.0,-5.0,0.3,0.6,-0.8,0.03,-0.84,0.11,0.53,0.0,0.0,0.0
1752860069024,187.0,-64.0,-173.0,-9.0,1.0,-4.0,-0.1,0.6,0.9,0.03,-0.84,0.1,0.53,0.0,0.0,0.0
1752860069075,188.0,-64.0,-174.0,-9.0,1.0,-4.0,-0.2,0.3,0.0,0.04,-0.84,0.1,0.53,0.0,0.0,0.0
1752860069311,201.0,-67.0,-178.0,-9.0,1.0,-3.0,-0.4,0.7,0.4,0.04,-0.84,0.1,0.54,0.0,0.0,0.0
1752860069345,200.0,-67.0,-177.0,-9.0,0.0,-3.0,-0.4,0.2,0.5,0.1,-0.82,0.17,0.55,0.0,0.0,0.0
1752860069393,199.0,-67.0,-176.0,-10.0,1.0,-3.0,-0.8,0.3,0.5,0.09,-0.82,0.17,0.55,0.0,0.0,0.0
1752860069431,199.0,-67.0,-175.0,-10.0,1.0,-5.0,-0.7,0.3,-0.8,0.09,-0.82,0.17,0.54,0.0,0.0,0.0
1752860069482,200.0,-66.0,-175.0,-9.0,1.0,-4.0,-0.1,0.2,-0.5,0.09,-0.82,0.18,0.54,0.0,0.0,0.0
1752860069636,199.0,-65.0,-173.0,-9.0,-0.0,-4.0,-0.3,-0.9,0.2,0.09,-0.82,0.18,0.54,0.0,0.0,0.0
1752860069667,198.0,-65.0,-173.0,-9.0,-0.0,-4.0,-0.6,-0.5,-0.2,0.09,-0.82,0.18,0.53,0.0,0.0,0.0
1752860069705,199.0,-65.0,-173.0,-9.0,0.0,-4.0,-0.5,-0.1,0.4,0.09,-0.82,0.18,0.53,0.0,0.0,0.0
1752860069757,199.0,-64.0,-174.0,-9.0,1.0,-4.0,-0.2,0.2,0.7,0.09,-0.83,0.18,0.53,0.0,0.0,0.0
1752860069791,199.0,-64.0,-175.0,-9.0,1.0,-4.0,-0.2,0.2,0.4,0.09,-0.83,0.18,0.52,0.0,0.0,0.0
1752860069843,199.0,-64.0,-175.0,-9.0,1.0,-4.0,-0.4,0.3,0.1,0.09,-0.83,0.18,0.52,0.0,0.0,0.0
1752860069885,199.0,-64.0,-174.0,-9.0,1.0,-5.0,-0.7,0.4,-0.3,0.09,-0.83,0.18,0.52,0.0,0.0,0.0
1752860070041,196.0,-64.0,-172.0,-9.0,0.0,-4.0,0.1,-0.3,-0.1,0.08,-0.83,0.18,0.52,0.0,0.0,0.0
1752860070181,196.0,-63.0,-171.0,-9.0,0.0,-4.0,-0.0,-0.2,0.2,0.07,-0.83,0.18,0.53,0.0,0.0,0.0
1752860070331,197.0,-63.0,-172.0,-9.0,1.0,-4.0,-0.5,0.2,0.2,0.07,-0.83,0.18,0.52,0.0,0.0,0.0
1752860070575,196.0,-63.0,-173.0,-9.0,1.0,-4.0,0.2,0.1,0.0,0.08,-0.83,0.19,0.52,0.0,0.0,0.0
1752860071310,190.0,-63.0,-161.0,-8.0,4.0,-4.0,2.4,5.1,-2.3,0.05,-0.82,0.21,0.53,0.0,0.0,0.0
1752860071350,197.0,-63.0,-163.0,-8.0,2.0,-6.0,0.9,0.3,-1.5,0.07,-0.81,0.24,0.53,0.0,0.0,0.0
1752860071393,203.0,-63.0,-165.0,-8.0,2.0,-5.0,0.8,1.1,-1.0,0.1,-0.81,0.27,0.52,0.0,0.0,0.0
1752860071439,207.0,-62.0,-167.0,-8.0,3.0,-5.0,0.4,1.8,-0.1,0.12,-0.8,0.3,0.51,0.0,0.0,0.0
1752860071489,209.0,-60.0,-166.0,-8.0,3.0,-5.0,0.3,1.3,0.2,0.13,-0.8,0.33,0.49,0.0,0.0,0.0
1752860071627,209.0,-59.0,-164.0,-9.0,2.0,-6.0,-1.8,-1.9,-0.4,0.13,-0.79,0.35,0.49,0.0,0.0,0.0
1752860071673,203.0,-53.0,-156.0,-10.0,0.0,-6.0,0.0,0.0,0.0,0.1,-0.77,0.42,0.47,0.0,0.0,0.0
1752860071710,201.0,-51.0,-154.0,-9.0,1.0,-5.0,-1.4,-1.6,1.0,0.09,-0.77,0.43,0.46,0.0,0.0,0.0
1752860071751,202.0,-50.0,-154.0,-9.0,2.0,-5.0,-1.3,-1.2,0.8,0.09,-0.76,0.45,0.45,0.0,0.0,0.0
1752860071793,204.0,-49.0,-154.0,-9.0,2.0,-5.0,-1.4,-1.0,0.5,0.09,-0.75,0.47,0.45,0.0,0.0,0.0
1752860071844,205.0,-49.0,-154.0,-9.0,3.0,-5.0,-1.6,0.0,0.6,0.1,-0.74,0.49,0.44,0.0,0.0,0.0
1752860071977,213.0,-53.0,-151.0,-8.0,3.0,-4.0,-0.6,0.5,0.3,0.11,-0.73,0.51,0.45,0.0,0.0,0.0
1752860072025,215.0,-54.0,-149.0,-8.0,4.0,-5.0,-0.2,0.8,-0.2,0.15,-0.68,0.53,0.47,0.0,0.0,0.0
1752860072075,219.0,-55.0,-149.0,-8.0,3.0,-5.0,0.4,0.4,-0.1,0.17,-0.67,0.54,0.48,0.0,0.0,0.0
1752860072112,219.0,-56.0,-146.0,-7.0,2.0,-5.0,0.9,-0.6,-0.2,0.17,-0.66,0.55,0.49,0.0,0.0,0.0
1752860072155,218.0,-57.0,-144.0,-7.0,3.0,-4.0,1.2,-0.4,0.5,0.17,-0.65,0.55,0.5,0.0,0.0,0.0
1752860072387,219.0,-57.0,-143.0,-7.0,2.0,-5.0,-0.1,-2.1,-0.5,0.18,-0.65,0.55,0.5,0.0,0.0,0.0
1752860072438,218.0,-56.0,-142.0,-9.0,1.0,-5.0,-1.0,-1.9,-0.4,0.17,-0.63,0.57,0.5,0.0,0.0,0.0
1752860072576,221.0,-55.0,-143.0,-11.0,4.0,-4.0,0.0,0.0,0.0,0.18,-0.63,0.58,0.49,0.0,0.0,0.0
1752860072627,221.0,-56.0,-143.0,-11.0,6.0,-5.0,-2.4,2.4,-0.7,0.19,-0.62,0.58,0.49,0.0,0.0,0.0
1752860072660,222.0,-58.0,-141.0,-10.0,6.0,-5.0,-1.9,2.8,-0.7,0.19,-0.62,0.57,0.5,0.0,0.0,0.0
1752860072710,222.0,-60.0,-139.0,-9.0,5.0,-3.0,-0.6,1.7,0.2,0.2,-0.62,0.56,0.52,0.0,0.0,0.0
1752860072750,223.0,-61.0,-136.0,-8.0,5.0,-3.0,0.6,1.7,0.3,0.21,-0.61,0.55,0.53,0.0,0.0,0.0
1752860072999,228.0,-70.0,-101.0,-3.0,4.0,-0.0,5.9,0.5,0.1,0.28,-0.53,0.51,0.62,0.0,0.0,0.0
1752860073145,219.0,-56.0,-106.0,1.0,6.0,-4.0,9.1,0.0,-3.0,0.28,-0.51,0.52,0.63,0.0,0.0,0.0
1752860073181,212.0,-50.0,-114.0,0.0,7.0,-10.0,7.3,0.7,-6.5,0.17,-0.47,0.64,0.58,0.0,0.0,0.0
1752860073231,203.0,-43.0,-127.0,-2.0,5.0,-11.0,3.8,0.1,-7.3,0.12,-0.51,0.67,0.53,0.0,0.0,0.0
1752860073278,196.0,-38.0,-137.0,-6.0,5.0,-13.0,-2.1,-0.9,-7.0,0.06,-0.58,0.67,0.46,0.0,0.0,0.0
1752860073315,189.0,-34.0,-147.0,-10.0,3.0,-16.0,-5.8,-0.8,-8.6,0.03,-0.67,0.63,0.39,0.0,0.0,0.0
1752860073349,251.0,-27.0,-157.0,-11.0,3.0,-14.0,0.0,0.0,0.0,-0.0,-0.76,0.57,0.32,0.0,0.0,0.0
1752860073395,237.0,-22.0,-161.0,-8.0,4.0,-13.0,-4.8,0.7,-4.2,-0.03,-0.83,0.49,0.25,0.0,0.0,0.0
1752860073640,194.0,-25.0,-156.0,-3.0,0.0,-10.0,1.4,-2.9,-1.8,-0.07,-0.89,0.4,0.21,0.0,0.0,0.0
1752860073683,192.0,-27.0,-156.0,-2.0,1.0,-10.0,2.3,-2.3,-1.8,-0.17,-0.95,0.1,0.26,0.0,0.0,0.0
1752860073834,194.0,-30.0,-156.0,-4.0,2.0,-9.0,0.8,-1.5,-1.1,-0.16,-0.95,0.08,0.27,0.0,0.0,0.0
1752860073871,198.0,-29.0,-155.0,-4.0,1.0,-8.0,0.5,-2.3,-0.6,-0.15,-0.93,0.15,0.29,0.0,0.0,0.0
1752860073922,204.0,-30.0,-155.0,-4.0,2.0,-8.0,0.4,-1.3,-0.3,-0.14,-0.93,0.18,0.29,0.0,0.0,0.0
1752860073955,208.0,-30.0,-156.0,-6.0,2.0,-9.0,-0.7,-0.9,-1.2,-0.12,-0.92,0.22,0.3,0.0,0.0,0.0
1752860074006,213.0,-31.0,-157.0,-6.0,3.0,-9.0,-1.0,0.1,-1.1,-0.1,-0.91,0.26,0.31,0.0,0.0,0.0
1752860074048,220.0,-32.0,-159.0,-6.0,4.0,-9.0,-0.8,1.2,-0.8,-0.06,-0.89,0.31,0.32,0.0,0.0,0.0
1752860074189,224.0,-34.0,-160.0,-7.0,4.0,-8.0,-1.7,0.9,0.3,-0.03,-0.88,0.35,0.33,0.0,0.0,0.0
1752860074339,198.0,-43.0,-159.0,-8.0,4.0,-5.0,-0.2,1.6,-0.2,0.06,-0.79,0.46,0.4,0.0,0.0,0.0
1752860074584,226.0,-73.0,-125.0,-6.0,3.0,-2.0,3.0,0.5,-0.2,0.16,-0.7,0.49,0.49,0.0,0.0,0.0
1752860074635,226.0,-73.0,-120.0,-6.0,3.0,-1.0,3.6,0.0,0.0,0.26,-0.6,0.46,0.6,0.0,0.0,0.0
1752860074867,219.0,-61.0,-128.0,-5.0,6.0,-3.0,3.3,1.9,-0.1,0.26,-0.59,0.46,0.61,0.0,0.0,0.0
1752860074917,216.0,-58.0,-132.0,-5.0,6.0,-5.0,3.7,1.8,-1.0,0.18,-0.6,0.56,0.54,0.0,0.0,0.0
1752860074950,212.0,-54.0,-136.0,-4.0,6.0,-7.0,3.3,2.4,-2.7,0.16,-0.61,0.57,0.52,0.0,0.0,0.0
1752860075312,203.0,-19.0,-161.0,-4.0,-0.0,-11.0,-0.6,-3.3,-1.8,-0.12,-0.95,0.21,0.2,0.0,0.0,0.0
1752860075350,196.0,-20.0,-161.0,-4.0,-1.0,-9.0,-0.2,-4.1,-0.8,-0.13,-0.96,0.15,0.2,0.0,0.0,0.0
1752860075491,182.0,-25.0,-162.0,-3.0,1.0,-10.0,1.0,-2.1,-1.1,-0.14,-0.96,0.1,0.2,0.0,0.0,0.0
1752860075647,176.0,-29.0,-162.0,-4.0,1.0,-9.0,0.8,-1.1,-0.4,-0.15,-0.96,-0.03,0.25,0.0,0.0,0.0
