timestamp,heading,roll,pitch,acc_x,acc_y,acc_z,quat_w,quat_x,quat_y,quat_z,mag_x,mag_y,mag_z
1752700553152,0.0,0.0,0.0,0.0,0.0,9.81,1.0,0.0,0.0,0.0,0.0,0.0,0.0
1752700553372,359.94,15.19,85.81,0.0,0.0,9.81,1.0,0.0,0.0,0.0,0.0,0.0,0.0
1752700553494,0.81,15.06,85.63,0.0,0.0,9.81,1.0,0.0,0.0,0.0,0.0,0.0,0.0
1752700553611,0.56,19.69,88.44,0.0,0.0,9.81,1.0,0.0,0.0,0.0,0.0,0.0,0.0
1752700553743,14.63,28.31,97.44,0.0,0.0,9.81,1.0,0.0,0.0,0.0,0.0,0.0,0.0
1752700553863,14.94,27.0,95.88,0.0,0.0,9.81,1.0,0.0,0.0,0.0,0.0,0.0,0.0
1752700553993,16.81,25.38,93.44,0.0,0.0,9.81,1.0,0.0,0.0,0.0,0.0,0.0,0.0
1752700554114,19.06,22.63,93.25,0.0,0.0,9.81,1.0,0.0,0.0,0.0,0.0,0.0,0.0
1752700554231,15.69,16.75,96.38,0.0,0.0,9.81,1.0,0.0,0.0,0.0,0.0,0.0,0.0
1752700554353,14.38,12.31,101.81,0.0,0.0,9.81,1.0,0.0,0.0,0.0,0.0,0.0,0.0
1752700554603,3.88,-0.88,109.88,0.0,0.0,9.81,1.0,0.0,0.0,0.0,0.0,0.0,0.0
1752700554720,7.44,-1.69,114.13,0.0,0.0,9.81,1.0,0.0,0.0,0.0,0.0,0.0,0.0
1752700554837,11.81,-0.94,116.75,0.0,0.0,9.81,1.0,0.0,0.0,0.0,0.0,0.0,0.0
1752700554968,17.44,0.81,118.38,0.0,0.0,9.81,1.0,0.0,0.0,0.0,0.0,0.0,0.0
1752700555187,27.0,5.25,119.06,0.0,0.0,9.81,1.0,0.0,0.0,0.0,0.0,0.0,0.0
1752700555422,26.25,4.44,120.63,0.0,0.0,9.81,1.0,0.0,0.0,0.0,0.0,0.0,0.0
1752700555539,27.63,4.75,120.75,0.0,0.0,9.81,1.0,0.0,0.0,0.0,0.0,0.0,0.0
1752700555669,29.06,5.25,121.0,0.0,0.0,9.81,1.0,0.0,0.0,0.0,0.0,0.0,0.0
1752700556004,28.19,4.06,123.5,0.0,0.0,9.81,1.0,0.0,0.0,0.0,0.0,0.0,0.0
1752700556417,31.63,4.88,124.31,0.0,0.0,9.81,1.0,0.0,0.0,0.0,0.0,0.0,0.0
1752700556536,32.63,5.13,124.69,0.0,0.0,9.81,1.0,0.0,0.0,0.0,0.0,0.0,0.0
1752700556670,29.88,3.88,125.56,0.0,0.0,9.81,1.0,0.0,0.0,0.0,0.0,0.0,0.0
1752700556786,28.5,3.31,126.13,0.0,0.0,9.81,1.0,0.0,0.0,0.0,0.0,0.0,0.0
1752700556910,28.0,3.0,125.81,0.0,0.0,9.81,1.0,0.0,0.0,0.0,0.0,0.0,0.0
1752700557033,27.69,2.88,125.69,0.0,0.0,9.81,1.0,0.0,0.0,0.0,0.0,0.0,0.0
1752700557160,28.94,3.31,125.56,0.0,0.0,9.81,1.0,0.0,0.0,0.0,0.0,0.0,0.0
1752700557285,29.81,3.56,125.5,0.0,0.0,9.81,1.0,0.0,0.0,0.0,0.0,0.0,0.0
1752700557411,30.88,3.81,126.25,0.0,0.0,9.81,1.0,0.0,0.0,0.0,0.0,0.0,0.0
1752700557537,33.88,4.88,126.31,0.0,0.0,9.81,1.0,0.0,0.0,0.0,0.0,0.0,0.0
1752700557661,33.81,4.88,127.56,0.0,0.0,9.81,1.0,0.0,0.0,0.0,0.0,0.0,0.0
1752700557788,32.81,4.31,127.69,0.0,0.0,9.81,1.0,0.0,0.0,0.0,0.0,0.0,0.0
1752700557919,23.88,1.88,133.44,0.0,0.0,9.81,1.0,0.0,0.0,0.0,0.0,0.0,0.0
1752700558039,22.88,2.13,134.19,0.0,0.0,9.81,1.0,0.0,0.0,0.0,0.0,0.0,0.0
1752700558270,19.75,0.81,132.94,0.0,0.0,9.81,1.0,0.0,0.0,0.0,0.0,0.0,0.0
1752700558387,19.25,0.56,132.94,0.0,0.0,9.81,1.0,0.0,0.0,0.0,0.0,0.0,0.0
1752700558516,18.75,0.25,133.25,0.0,0.0,9.81,1.0,0.0,0.0,0.0,0.0,0.0,0.0
1752700558642,19.19,0.38,133.25,0.0,0.0,9.81,1.0,0.0,0.0,0.0,0.0,0.0,0.0
1752700558755,16.81,-0.69,132.88,0.0,0.0,9.81,1.0,0.0,0.0,0.0,0.0,0.0,0.0
1752700558875,189.63,-5.44,137.69,0.0,0.0,9.81,1.0,0.0,0.0,0.0,0.0,0.0,0.0
1752700559006,28.13,23.63,114.44,0.0,0.0,9.81,1.0,0.0,0.0,0.0,0.0,0.0,0.0
1752700559123,15.81,10.38,121.94,0.0,0.0,9.81,1.0,0.0,0.0,0.0,0.0,0.0,0.0
1752700559240,11.63,7.56,123.69,0.0,0.0,9.81,1.0,0.0,0.0,0.0,0.0,0.0,0.0
1752700559368,6.31,5.31,121.69,0.0,0.0,9.81,1.0,0.0,0.0,0.0,0.0,0.0,0.0
1752700559586,2.0,4.63,121.75,0.0,0.0,9.81,1.0,0.0,0.0,0.0,0.0,0.0,0.0
1752700559710,351.06,-2.56,111.13,0.0,0.0,9.81,1.0,0.0,0.0,0.0,0.0,0.0,0.0
1752700559831,336.81,-15.69,98.88,0.0,0.0,9.81,1.0,0.0,0.0,0.0,0.0,0.0,0.0
1752700559948,329.19,-24.94,86.0,0.0,0.0,9.81,1.0,0.0,0.0,0.0,0.0,0.0,0.0
1752700560073,327.75,-28.81,80.19,0.0,0.0,9.81,1.0,0.0,0.0,0.0,0.0,0.0,0.0
1752700560200,342.56,-28.19,88.38,0.0,0.0,9.81,1.0,0.0,0.0,0.0,0.0,0.0,0.0
1752700560318,11.44,-20.63,97.75,0.0,0.0,9.81,1.0,0.0,0.0,0.0,0.0,0.0,0.0
1752700560444,24.94,-17.69,95.38,0.0,0.0,9.81,1.0,0.0,0.0,0.0,0.0,0.0,0.0
1752700560569,18.94,-12.19,92.56,0.0,0.0,9.81,1.0,0.0,0.0,0.0,0.0,0.0,0.0
1752700560686,338.75,-11.38,92.81,0.0,0.0,9.81,1.0,0.0,0.0,0.0,0.0,0.0,0.0
1752700560819,328.88,-14.94,97.19,0.0,0.0,9.81,1.0,0.0,0.0,0.0,0.0,0.0,0.0
1752700560936,336.5,-12.0,101.31,0.0,0.0,9.81,1.0,0.0,0.0,0.0,0.0,0.0,0.0
1752700561069,355.75,-8.5,108.63,0.0,0.0,9.81,1.0,0.0,0.0,0.0,0.0,0.0,0.0
1752700561186,289.88,-2.19,103.13,0.0,0.0,9.81,1.0,0.0,0.0,0.0,0.0,0.0,0.0
1752700561310,295.88,-1.31,99.69,0.0,0.0,9.81,1.0,0.0,0.0,0.0,0.0,0.0,0.0
1752700561428,287.06,-0.31,101.94,0.0,0.0,9.81,1.0,0.0,0.0,0.0,0.0,0.0,0.0
1752700561552,258.56,-4.63,104.56,0.0,0.0,9.81,1.0,0.0,0.0,0.0,0.0,0.0,0.0
1752700561679,246.25,-9.06,102.88,0.0,0.0,9.81,1.0,0.0,0.0,0.0,0.0,0.0,0.0
1752700561803,246.19,-9.56,102.5,0.0,0.0,9.81,1.0,0.0,0.0,0.0,0.0,0.0,0.0
1752700561922,250.13,-8.25,103.63,0.0,0.0,9.81,1.0,0.0,0.0,0.0,0.0,0.0,0.0
1752700562045,278.38,-0.38,110.5,0.0,0.0,9.81,1.0,0.0,0.0,0.0,0.0,0.0,0.0
1752700562172,291.44,3.63,107.31,0.0,0.0,9.81,1.0,0.0,0.0,0.0,0.0,0.0,0.0
1752700562390,295.0,4.81,107.13,0.0,0.0,9.81,1.0,0.0,0.0,0.0,0.0,0.0,0.0
1752700562524,280.0,2.69,109.19,0.0,0.0,9.81,1.0,0.0,0.0,0.0,0.0,0.0,0.0
1752700562638,276.88,2.06,112.56,0.0,0.0,9.81,1.0,0.0,0.0,0.0,0.0,0.0,0.0
1752700562774,282.0,6.06,116.0,0.0,0.0,9.81,1.0,0.0,0.0,0.0,0.0,0.0,0.0
1752700562887,282.06,7.88,117.69,0.0,0.0,9.81,1.0,0.0,0.0,0.0,0.0,0.0,0.0
1752700563008,273.88,5.69,116.13,0.0,0.0,9.81,1.0,0.0,0.0,0.0,0.0,0.0,0.0
1752700563125,276.69,6.81,116.88,0.0,0.0,9.81,1.0,0.0,0.0,0.0,0.0,0.0,0.0
1752700563249,283.44,8.88,116.13,0.0,0.0,9.81,1.0,0.0,0.0,0.0,0.0,0.0,0.0
1752700563377,284.38,9.06,116.19,0.0,0.0,9.81,1.0,0.0,0.0,0.0,0.0,0.0,0.0
1752700563494,285.31,9.25,116.0,0.0,0.0,9.81,1.0,0.0,0.0,0.0,0.0,0.0,0.0
1752700563625,287.63,10.0,116.19,0.0,0.0,9.81,1.0,0.0,0.0,0.0,0.0,0.0,0.0
1752700563843,233.31,-9.44,115.69,0.0,0.0,9.81,1.0,0.0,0.0,0.0,0.0,0.0,0.0
1752700564075,282.38,13.81,107.13,0.0,0.0,9.81,1.0,0.0,0.0,0.0,0.0,0.0,0.0
1752700564191,296.56,14.0,113.06,0.0,0.0,9.81,1.0,0.0,0.0,0.0,0.0,0.0,0.0
1752700564323,266.38,-1.06,116.63,0.0,0.0,9.81,1.0,0.0,0.0,0.0,0.0,0.0,0.0
1752700564540,247.44,-6.94,107.06,0.0,0.0,9.81,1.0,0.0,0.0,0.0,0.0,0.0,0.0
1752700564665,248.25,-4.88,108.0,0.0,0.0,9.81,1.0,0.0,0.0,0.0,0.0,0.0,0.0
1752700564788,252.0,-4.0,110.25,0.0,0.0,9.81,1.0,0.0,0.0,0.0,0.0,0.0,0.0
1752700564908,253.5,-3.38,112.06,0.0,0.0,9.81,1.0,0.0,0.0,0.0,0.0,0.0,0.0
1752700565039,260.13,-0.75,112.0,0.0,0.0,9.81,1.0,0.0,0.0,0.0,0.0,0.0,0.0
1752700565359,273.19,3.88,108.31,0.0,0.0,9.81,1.0,0.0,0.0,0.0,0.0,0.0,0.0
1752700565491,273.69,5.06,108.38,0.0,0.0,9.81,1.0,0.0,0.0,0.0,0.0,0.0,0.0
1752700565609,273.38,4.88,108.56,0.0,0.0,9.81,1.0,0.0,0.0,0.0,0.0,0.0,0.0
1752700565728,273.06,4.88,108.75,0.0,0.0,9.81,1.0,0.0,0.0,0.0,0.0,0.0,0.0
1752700565957,276.63,7.63,111.88,0.0,0.0,9.81,1.0,0.0,0.0,0.0,0.0,0.0,0.0
1752700566077,287.94,12.69,117.63,0.0,0.0,9.81,1.0,0.0,0.0,0.0,0.0,0.0,0.0
1752700566201,288.88,12.5,119.25,0.0,0.0,9.81,1.0,0.0,0.0,0.0,0.0,0.0,0.0
1752700566325,290.56,12.75,120.06,0.0,0.0,9.81,1.0,0.0,0.0,0.0,0.0,0.0,0.0
1752700566546,289.88,11.31,115.19,0.0,0.0,9.81,1.0,0.0,0.0,0.0,0.0,0.0,0.0
1752700566671,289.56,12.06,114.31,0.0,0.0,9.81,1.0,0.0,0.0,0.0,0.0,0.0,0.0
1752700566794,268.5,3.88,92.94,0.0,0.0,9.81,1.0,0.0,0.0,0.0,0.0,0.0,0.0
1752700566910,260.38,-1.13,98.25,0.0,0.0,9.81,1.0,0.0,0.0,0.0,0.0,0.0,0.0
1752700567045,240.63,-12.88,85.63,0.0,0.0,9.81,1.0,0.0,0.0,0.0,0.0,0.0,0.0
1752700567166,253.31,1.19,115.06,0.0,0.0,9.81,1.0,0.0,0.0,0.0,0.0,0.0,0.0
1752700567282,228.94,-17.5,77.25,0.0,0.0,9.81,1.0,0.0,0.0,0.0,0.0,0.0,0.0
1752700567402,225.06,-18.0,81.63,0.0,0.0,9.81,1.0,0.0,0.0,0.0,0.0,0.0,0.0
1752700567519,286.19,17.81,129.5,0.0,0.0,9.81,1.0,0.0,0.0,0.0,0.0,0.0,0.0
1752700567644,228.31,-19.88,82.69,0.0,0.0,9.81,1.0,0.0,0.0,0.0,0.0,0.0,0.0
1752700567771,229.0,-24.38,70.13,0.0,0.0,9.81,1.0,0.0,0.0,0.0,0.0,0.0,0.0
1752700567885,232.13,-19.56,94.19,0.0,0.0,9.81,1.0,0.0,0.0,0.0,0.0,0.0,0.0
1752700568003,257.5,-2.69,103.0,0.0,0.0,9.81,1.0,0.0,0.0,0.0,0.0,0.0,0.0
1752700568139,260.5,-0.44,101.19,0.0,0.0,9.81,1.0,0.0,0.0,0.0,0.0,0.0,0.0
1752700568251,264.81,3.19,100.88,0.0,0.0,9.81,1.0,0.0,0.0,0.0,0.0,0.0,0.0
1752700568376,267.25,4.13,101.81,0.0,0.0,9.81,1.0,0.0,0.0,0.0,0.0,0.0,0.0
1752700568497,269.19,2.75,98.81,0.0,0.0,9.81,1.0,0.0,0.0,0.0,0.0,0.0,0.0
1752700568614,270.81,3.56,99.69,0.0,0.0,9.81,1.0,0.0,0.0,0.0,0.0,0.0,0.0
1752700568744,271.31,3.75,100.13,0.0,0.0,9.81,1.0,0.0,0.0,0.0,0.0,0.0,0.0
1752700568959,287.31,12.06,110.94,0.0,0.0,9.81,1.0,0.0,0.0,0.0,0.0,0.0,0.0
1752700569081,290.0,14.19,114.56,0.0,0.0,9.81,1.0,0.0,0.0,0.0,0.0,0.0,0.0
1752700569302,282.81,9.25,107.69,0.0,0.0,9.81,1.0,0.0,0.0,0.0,0.0,0.0,0.0
1752700569436,282.69,8.44,107.0,0.0,0.0,9.81,1.0,0.0,0.0,0.0,0.0,0.0,0.0
1752700569646,283.44,8.56,106.88,0.0,0.0,9.81,1.0,0.0,0.0,0.0,0.0,0.0,0.0
1752700569787,284.25,9.06,106.44,0.0,0.0,9.81,1.0,0.0,0.0,0.0,0.0,0.0,0.0
1752700569905,285.19,9.5,106.0,0.0,0.0,9.81,1.0,0.0,0.0,0.0,0.0,0.0,0.0
1752700570143,288.06,10.94,106.38,0.0,0.0,9.81,1.0,0.0,0.0,0.0,0.0,0.0,0.0
1752700570261,288.81,11.25,105.31,0.0,0.0,9.81,1.0,0.0,0.0,0.0,0.0,0.0,0.0
1752700570494,290.63,12.94,113.0,0.0,0.0,9.81,1.0,0.0,0.0,0.0,0.0,0.0,0.0
1752700570605,299.75,16.06,112.63,0.0,0.0,9.81,1.0,0.0,0.0,0.0,0.0,0.0,0.0
1752700570732,299.63,16.81,113.06,0.0,0.0,9.81,1.0,0.0,0.0,0.0,0.0,0.0,0.0
1752700570850,297.25,16.56,112.81,0.0,0.0,9.81,1.0,0.0,0.0,0.0,0.0,0.0,0.0
1752700570981,297.25,17.25,113.25,0.0,0.0,9.81,1.0,0.0,0.0,0.0,0.0,0.0,0.0
1752700571098,295.94,16.75,113.69,0.0,0.0,9.81,1.0,0.0,0.0,0.0,0.0,0.0,0.0
1752700571225,294.69,16.56,115.25,0.0,0.0,9.81,1.0,0.0,0.0,0.0,0.0,0.0,0.0
1752700571346,292.19,15.44,116.63,0.0,0.0,9.81,1.0,0.0,0.0,0.0,0.0,0.0,0.0
1752700571466,288.44,13.69,116.94,0.0,0.0,9.81,1.0,0.0,0.0,0.0,0.0,0.0,0.0
1752700571591,286.25,12.44,117.56,0.0,0.0,9.81,1.0,0.0,0.0,0.0,0.0,0.0,0.0
1752700571715,287.06,12.75,116.56,0.0,0.0,9.81,1.0,0.0,0.0,0.0,0.0,0.0,0.0
1752700572044,288.75,13.5,115.75,0.0,0.0,9.81,1.0,0.0,0.0,0.0,0.0,0.0,0.0
1752700572267,290.0,14.13,115.19,0.0,0.0,9.81,1.0,0.0,0.0,0.0,0.0,0.0,0.0
1752700572387,290.38,14.19,115.0,0.0,0.0,9.81,1.0,0.0,0.0,0.0,0.0,0.0,0.0
1752700572508,290.69,14.25,114.81,0.0,0.0,9.81,1.0,0.0,0.0,0.0,0.0,0.0,0.0
1752700572625,291.19,14.56,114.88,0.0,0.0,9.81,1.0,0.0,0.0,0.0,0.0,0.0,0.0
1752700572743,291.63,14.88,114.63,0.0,0.0,9.81,1.0,0.0,0.0,0.0,0.0,0.0,0.0
1752700572873,291.81,14.88,114.63,0.0,0.0,9.81,1.0,0.0,0.0,0.0,0.0,0.0,0.0
1752700572991,292.19,15.06,114.81,0.0,0.0,9.81,1.0,0.0,0.0,0.0,0.0,0.0,0.0
1752700573113,293.19,16.31,116.31,0.0,0.0,9.81,1.0,0.0,0.0,0.0,0.0,0.0,0.0
1752700573230,293.5,16.19,116.0,0.0,0.0,9.81,1.0,0.0,0.0,0.0,0.0,0.0,0.0
1752700573356,293.94,16.31,115.63,0.0,0.0,9.81,1.0,0.0,0.0,0.0,0.0,0.0,0.0
1752700573484,294.81,17.31,115.94,0.0,0.0,9.81,1.0,0.0,0.0,0.0,0.0,0.0,0.0
1752700573601,296.06,18.0,116.69,0.0,0.0,9.81,1.0,0.0,0.0,0.0,0.0,0.0,0.0
1752700573715,296.38,18.13,116.69,0.0,0.0,9.81,1.0,0.0,0.0,0.0,0.0,0.0,0.0
1752700573851,296.63,18.19,116.75,0.0,0.0,9.81,1.0,0.0,0.0,0.0,0.0,0.0,0.0
1752700573971,296.75,18.19,116.75,0.0,0.0,9.81,1.0,0.0,0.0,0.0,0.0,0.0,0.0
1752700574086,296.75,18.19,116.63,0.0,0.0,9.81,1.0,0.0,0.0,0.0,0.0,0.0,0.0
1752700574204,297.5,18.5,116.5,0.0,0.0,9.81,1.0,0.0,0.0,0.0,0.0,0.0,0.0
1752700574326,298.06,18.75,115.75,0.0,0.0,9.81,1.0,0.0,0.0,0.0,0.0,0.0,0.0
1752700574451,297.94,18.69,115.19,0.0,0.0,9.81,1.0,0.0,0.0,0.0,0.0,0.0,0.0
1752700574679,298.31,18.75,114.69,0.0,0.0,9.81,1.0,0.0,0.0,0.0,0.0,0.0,0.0
1752700574796,298.25,18.81,114.81,0.0,0.0,9.81,1.0,0.0,0.0,0.0,0.0,0.0,0.0
1752700574920,298.31,18.88,114.88,0.0,0.0,9.81,1.0,0.0,0.0,0.0,0.0,0.0,0.0
1752700575147,298.81,18.94,114.75,0.0,0.0,9.81,1.0,0.0,0.0,0.0,0.0,0.0,0.0
1752700575264,298.56,18.38,113.75,0.0,0.0,9.81,1.0,0.0,0.0,0.0,0.0,0.0,0.0
1752700575389,298.38,18.38,113.75,0.0,0.0,9.81,1.0,0.0,0.0,0.0,0.0,0.0,0.0
1752700575518,298.63,18.44,114.06,0.0,0.0,9.81,1.0,0.0,0.0,0.0,0.0,0.0,0.0
1752700575635,298.75,18.56,114.06,0.0,0.0,9.81,1.0,0.0,0.0,0.0,0.0,0.0,0.0
1752700575752,298.94,18.69,113.88,0.0,0.0,9.81,1.0,0.0,0.0,0.0,0.0,0.0,0.0
1752700575987,299.13,18.75,113.88,0.0,0.0,9.81,1.0,0.0,0.0,0.0,0.0,0.0,0.0
1752700576102,299.06,18.69,113.88,0.0,0.0,9.81,1.0,0.0,0.0,0.0,0.0,0.0,0.0
1752700576232,299.31,18.75,114.0,0.0,0.0,9.81,1.0,0.0,0.0,0.0,0.0,0.0,0.0
1752700576458,299.38,18.81,114.13,0.0,0.0,9.81,1.0,0.0,0.0,0.0,0.0,0.0,0.0
1752700576687,299.44,18.81,114.19,0.0,0.0,9.81,1.0,0.0,0.0,0.0,0.0,0.0,0.0
1752700576817,299.38,18.75,114.06,0.0,0.0,9.81,1.0,0.0,0.0,0.0,0.0,0.0,0.0
1752700576932,299.56,18.63,114.06,0.0,0.0,9.81,1.0,0.0,0.0,0.0,0.0,0.0,0.0
1752700577046,299.5,18.56,114.31,0.0,0.0,9.81,1.0,0.0,0.0,0.0,0.0,0.0,0.0
1752700577172,299.69,18.63,114.19,0.0,0.0,9.81,1.0,0.0,0.0,0.0,0.0,0.0,0.0
1752700577299,298.81,17.94,113.56,0.0,0.0,9.81,1.0,0.0,0.0,0.0,0.0,0.0,0.0
1752700577411,298.81,17.94,113.5,0.0,0.0,9.81,1.0,0.0,0.0,0.0,0.0,0.0,0.0
1752700577845,299.13,18.25,113.31,0.0,0.0,9.81,1.0,0.0,0.0,0.0,0.0,0.0,0.0
1752700577960,299.0,18.13,113.19,0.0,0.0,9.81,1.0,0.0,0.0,0.0,0.0,0.0,0.0
1752700578087,298.81,17.94,113.31,0.0,0.0,9.81,1.0,0.0,0.0,0.0,0.0,0.0,0.0
1752700578206,298.75,17.88,113.19,0.0,0.0,9.81,1.0,0.0,0.0,0.0,0.0,0.0,0.0
1752700578323,298.88,18.0,113.13,0.0,0.0,9.81,1.0,0.0,0.0,0.0,0.0,0.0,0.0
1752700578540,299.0,18.13,113.06,0.0,0.0,9.81,1.0,0.0,0.0,0.0,0.0,0.0,0.0
1752700578774,299.31,18.31,112.81,0.0,0.0,9.81,1.0,0.0,0.0,0.0,0.0,0.0,0.0
1752700578888,299.31,18.31,112.81,0.0,0.0,9.81,1.0,0.0,0.0,0.0,0.0,0.0,0.0
1752700579009,299.38,18.38,112.69,0.0,0.0,9.81,1.0,0.0,0.0,0.0,0.0,0.0,0.0
1752700579124,299.38,18.44,112.63,0.0,0.0,9.81,1.0,0.0,0.0,0.0,0.0,0.0,0.0
1752700579263,299.38,18.44,112.69,0.0,0.0,9.81,1.0,0.0,0.0,0.0,0.0,0.0,0.0
1752700579372,299.44,18.5,112.75,0.0,0.0,9.81,1.0,0.0,0.0,0.0,0.0,0.0,0.0
1752700579598,299.63,18.44,112.56,0.0,0.0,9.81,1.0,0.0,0.0,0.0,0.0,0.0,0.0
1752700579715,299.31,18.25,112.5,0.0,0.0,9.81,1.0,0.0,0.0,0.0,0.0,0.0,0.0
1752700579851,299.19,18.19,112.56,0.0,0.0,9.81,1.0,0.0,0.0,0.0,0.0,0.0,0.0
1752700579968,299.31,18.25,112.56,0.0,0.0,9.81,1.0,0.0,0.0,0.0,0.0,0.0,0.0
1752700580102,299.38,18.31,112.63,0.0,0.0,9.81,1.0,0.0,0.0,0.0,0.0,0.0,0.0
1752700580219,299.44,18.38,112.56,0.0,0.0,9.81,1.0,0.0,0.0,0.0,0.0,0.0,0.0
1752700580343,299.38,18.31,112.56,0.0,0.0,9.81,1.0,0.0,0.0,0.0,0.0,0.0,0.0
1752700580468,299.38,18.38,112.56,0.0,0.0,9.81,1.0,0.0,0.0,0.0,0.0,0.0,0.0
1752700580584,299.44,18.38,112.69,0.0,0.0,9.81,1.0,0.0,0.0,0.0,0.0,0.0,0.0
1752700580703,299.5,18.38,112.75,0.0,0.0,9.81,1.0,0.0,0.0,0.0,0.0,0.0,0.0
1752700580828,299.44,18.31,112.75,0.0,0.0,9.81,1.0,0.0,0.0,0.0,0.0,0.0,0.0
1752700580954,299.5,18.31,112.81,0.0,0.0,9.81,1.0,0.0,0.0,0.0,0.0,0.0,0.0
1752700581079,299.56,18.38,112.81,0.0,0.0,9.81,1.0,0.0,0.0,0.0,0.0,0.0,0.0
1752700581201,299.63,18.44,112.81,0.0,0.0,9.81,1.0,0.0,0.0,0.0,0.0,0.0,0.0
1752700581318,299.75,18.56,112.75,0.0,0.0,9.81,1.0,0.0,0.0,0.0,0.0,0.0,0.0
1752700581747,299.88,18.63,112.63,0.0,0.0,9.81,1.0,0.0,0.0,0.0,0.0,0.0,0.0
1752700581974,299.88,18.63,112.69,0.0,0.0,9.81,1.0,0.0,0.0,0.0,0.0,0.0,0.0
1752700582093,299.88,18.56,112.75,0.0,0.0,9.81,1.0,0.0,0.0,0.0,0.0,0.0,0.0
1752700582219,299.88,18.56,112.88,0.0,0.0,9.81,1.0,0.0,0.0,0.0,0.0,0.0,0.0
1752700582347,299.88,18.56,112.81,0.0,0.0,9.81,1.0,0.0,0.0,0.0,0.0,0.0,0.0
1752700582466,299.81,18.5,112.81,0.0,0.0,9.81,1.0,0.0,0.0,0.0,0.0,0.0,0.0
1752700582599,299.81,18.44,112.81,0.0,0.0,9.81,1.0,0.0,0.0,0.0,0.0,0.0,0.0
1752700582823,299.88,18.44,112.88,0.0,0.0,9.81,1.0,0.0,0.0,0.0,0.0,0.0,0.0
1752700582933,299.88,18.44,112.94,0.0,0.0,9.81,1.0,0.0,0.0,0.0,0.0,0.0,0.0
1752700583057,299.88,18.5,112.94,0.0,0.0,9.81,1.0,0.0,0.0,0.0,0.0,0.0,0.0
1752700583179,299.81,18.44,112.94,0.0,0.0,9.81,1.0,0.0,0.0,0.0,0.0,0.0,0.0
1752700583309,299.81,18.44,112.94,0.0,0.0,9.81,1.0,0.0,0.0,0.0,0.0,0.0,0.0
1752700583641,300.0,18.63,112.81,0.0,0.0,9.81,1.0,0.0,0.0,0.0,0.0,0.0,0.0
1752700583758,300.13,18.69,112.94,0.0,0.0,9.81,1.0,0.0,0.0,0.0,0.0,0.0,0.0
1752700584078,300.25,18.63,113.0,0.0,0.0,9.81,1.0,0.0,0.0,0.0,0.0,0.0,0.0
1752700584210,300.94,19.0,113.19,0.0,0.0,9.81,1.0,0.0,0.0,0.0,0.0,0.0,0.0
1752700584429,302.25,19.5,113.69,0.0,0.0,9.81,1.0,0.0,0.0,0.0,0.0,0.0,0.0
1752700584655,301.94,19.31,113.44,0.0,0.0,9.81,1.0,0.0,0.0,0.0,0.0,0.0,0.0
1752700584792,301.88,19.38,113.31,0.0,0.0,9.81,1.0,0.0,0.0,0.0,0.0,0.0,0.0
1752700585013,301.94,19.38,113.38,0.0,0.0,9.81,1.0,0.0,0.0,0.0,0.0,0.0,0.0
1752700585140,301.94,19.38,113.44,0.0,0.0,9.81,1.0,0.0,0.0,0.0,0.0,0.0,0.0
1752700585366,302.06,19.44,113.38,0.0,0.0,9.81,1.0,0.0,0.0,0.0,0.0,0.0,0.0
1752700585488,302.13,19.5,113.44,0.0,0.0,9.81,1.0,0.0,0.0,0.0,0.0,0.0,0.0
1752700585720,302.13,19.5,113.5,0.0,0.0,9.81,1.0,0.0,0.0,0.0,0.0,0.0,0.0
1752700585831,302.13,19.5,113.5,0.0,0.0,9.81,1.0,0.0,0.0,0.0,0.0,0.0,0.0
1752700585958,302.13,19.44,113.5,0.0,0.0,9.81,1.0,0.0,0.0,0.0,0.0,0.0,0.0
1752700586076,302.13,19.44,113.5,0.0,0.0,9.81,1.0,0.0,0.0,0.0,0.0,0.0,0.0
1752700586207,302.13,19.44,113.63,0.0,0.0,9.81,1.0,0.0,0.0,0.0,0.0,0.0,0.0
1752700586319,302.19,19.44,113.5,0.0,0.0,9.81,1.0,0.0,0.0,0.0,0.0,0.0,0.0
1752700586443,302.13,19.44,113.63,0.0,0.0,9.81,1.0,0.0,0.0,0.0,0.0,0.0,0.0
1752700586566,302.25,19.5,113.56,0.0,0.0,9.81,1.0,0.0,0.0,0.0,0.0,0.0,0.0
1752700586783,302.13,19.31,113.56,0.0,0.0,9.81,1.0,0.0,0.0,0.0,0.0,0.0,0.0
1752700586911,302.19,19.38,113.5,0.0,0.0,9.81,1.0,0.0,0.0,0.0,0.0,0.0,0.0
1752700587035,302.13,19.31,113.5,0.0,0.0,9.81,1.0,0.0,0.0,0.0,0.0,0.0,0.0
1752700587170,302.19,19.38,113.44,0.0,0.0,9.81,1.0,0.0,0.0,0.0,0.0,0.0,0.0
1752700587291,302.19,19.31,113.44,0.0,0.0,9.81,1.0,0.0,0.0,0.0,0.0,0.0,0.0
1752700587509,302.19,19.31,113.5,0.0,0.0,9.81,1.0,0.0,0.0,0.0,0.0,0.0,0.0
1752700587628,302.25,19.38,113.31,0.0,0.0,9.81,1.0,0.0,0.0,0.0,0.0,0.0,0.0
1752700587754,302.19,19.31,113.44,0.0,0.0,9.81,1.0,0.0,0.0,0.0,0.0,0.0,0.0
1752700587974,302.0,19.25,113.38,0.0,0.0,9.81,1.0,0.0,0.0,0.0,0.0,0.0,0.0
1752700588304,301.88,19.19,113.5,0.0,0.0,9.81,1.0,0.0,0.0,0.0,0.0,0.0,0.0
1752700588439,301.88,19.19,113.38,0.0,0.0,9.81,1.0,0.0,0.0,0.0,0.0,0.0,0.0
1752700588559,301.81,19.19,113.44,0.0,0.0,9.81,1.0,0.0,0.0,0.0,0.0,0.0,0.0
1752700588676,301.88,19.25,113.31,0.0,0.0,9.81,1.0,0.0,0.0,0.0,0.0,0.0,0.0
1752700588793,301.88,19.25,113.38,0.0,0.0,9.81,1.0,0.0,0.0,0.0,0.0,0.0,0.0
1752700588928,301.81,19.19,113.38,0.0,0.0,9.81,1.0,0.0,0.0,0.0,0.0,0.0,0.0
1752700589044,301.88,19.19,113.38,0.0,0.0,9.81,1.0,0.0,0.0,0.0,0.0,0.0,0.0
1752700589161,301.81,19.19,113.38,0.0,0.0,9.81,1.0,0.0,0.0,0.0,0.0,0.0,0.0
1752700589281,301.81,19.19,113.31,0.0,0.0,9.81,1.0,0.0,0.0,0.0,0.0,0.0,0.0
1752700589415,301.81,19.13,113.5,0.0,0.0,9.81,1.0,0.0,0.0,0.0,0.0,0.0,0.0
1752700589532,301.81,19.13,113.44,0.0,0.0,9.81,1.0,0.0,0.0,0.0,0.0,0.0,0.0
1752700589652,301.88,19.13,113.5,0.0,0.0,9.81,1.0,0.0,0.0,0.0,0.0,0.0,0.0
1752700589784,301.88,19.19,113.38,0.0,0.0,9.81,1.0,0.0,0.0,0.0,0.0,0.0,0.0
1752700589905,301.88,19.13,113.5,0.0,0.0,9.81,1.0,0.0,0.0,0.0,0.0,0.0,0.0
1752700590326,302.06,19.31,113.25,0.0,0.0,9.81,1.0,0.0,0.0,0.0,0.0,0.0,0.0
1752700590445,302.13,19.31,113.31,0.0,0.0,9.81,1.0,0.0,0.0,0.0,0.0,0.0,0.0
1752700590565,302.25,19.38,113.19,0.0,0.0,9.81,1.0,0.0,0.0,0.0,0.0,0.0,0.0
1752700590698,302.25,19.31,113.19,0.0,0.0,9.81,1.0,0.0,0.0,0.0,0.0,0.0,0.0
1752700590815,302.19,19.31,113.13,0.0,0.0,9.81,1.0,0.0,0.0,0.0,0.0,0.0,0.0
1752700590949,302.19,19.31,113.13,0.0,0.0,9.81,1.0,0.0,0.0,0.0,0.0,0.0,0.0
1752700591066,302.19,19.31,113.19,0.0,0.0,9.81,1.0,0.0,0.0,0.0,0.0,0.0,0.0
1752700591283,302.25,19.31,113.19,0.0,0.0,9.81,1.0,0.0,0.0,0.0,0.0,0.0,0.0
1752700591521,302.25,19.31,113.19,0.0,0.0,9.81,1.0,0.0,0.0,0.0,0.0,0.0,0.0
1752700591640,302.25,19.31,113.31,0.0,0.0,9.81,1.0,0.0,0.0,0.0,0.0,0.0,0.0
1752700591953,302.38,19.38,113.44,0.0,0.0,9.81,1.0,0.0,0.0,0.0,0.0,0.0,0.0
1752700592082,302.38,19.31,113.56,0.0,0.0,9.81,1.0,0.0,0.0,0.0,0.0,0.0,0.0
1752700592198,302.44,19.44,113.38,0.0,0.0,9.81,1.0,0.0,0.0,0.0,0.0,0.0,0.0
1752700592428,302.56,19.5,113.31,0.0,0.0,9.81,1.0,0.0,0.0,0.0,0.0,0.0,0.0
1752700592548,302.44,19.5,113.38,0.0,0.0,9.81,1.0,0.0,0.0,0.0,0.0,0.0,0.0
1752700592780,307.75,23.88,123.19,0.0,0.0,9.81,1.0,0.0,0.0,0.0,0.0,0.0,0.0
1752700592891,292.69,19.56,125.81,0.0,0.0,9.81,1.0,0.0,0.0,0.0,0.0,0.0,0.0
1752700593015,272.06,14.88,124.56,0.0,0.0,9.81,1.0,0.0,0.0,0.0,0.0,0.0,0.0
1752700593137,267.63,13.69,118.5,0.0,0.0,9.81,1.0,0.0,0.0,0.0,0.0,0.0,0.0
1752700593262,265.44,12.56,114.94,0.0,0.0,9.81,1.0,0.0,0.0,0.0,0.0,0.0,0.0
1752700593390,261.19,11.5,110.25,0.0,0.0,9.81,1.0,0.0,0.0,0.0,0.0,0.0,0.0
1752700593508,255.25,10.25,106.5,0.0,0.0,9.81,1.0,0.0,0.0,0.0,0.0,0.0,0.0
1752700593627,250.5,10.25,105.25,0.0,0.0,9.81,1.0,0.0,0.0,0.0,0.0,0.0,0.0
1752700593745,251.25,10.88,105.38,0.0,0.0,9.81,1.0,0.0,0.0,0.0,0.0,0.0,0.0
1752700593871,251.88,10.94,106.38,0.0,0.0,9.81,1.0,0.0,0.0,0.0,0.0,0.0,0.0
1752700593990,253.13,9.94,113.94,0.0,0.0,9.81,1.0,0.0,0.0,0.0,0.0,0.0,0.0
1752700594115,267.25,13.06,122.25,0.0,0.0,9.81,1.0,0.0,0.0,0.0,0.0,0.0,0.0
1752700594346,278.94,17.19,125.94,0.0,0.0,9.81,1.0,0.0,0.0,0.0,0.0,0.0,0.0
1752700594470,281.63,18.06,126.13,0.0,0.0,9.81,1.0,0.0,0.0,0.0,0.0,0.0,0.0
1752700594590,283.5,18.75,125.75,0.0,0.0,9.81,1.0,0.0,0.0,0.0,0.0,0.0,0.0
1752700594710,284.5,19.13,126.13,0.0,0.0,9.81,1.0,0.0,0.0,0.0,0.0,0.0,0.0
1752700594831,284.5,19.06,126.06,0.0,0.0,9.81,1.0,0.0,0.0,0.0,0.0,0.0,0.0
1752700594952,283.63,18.44,125.94,0.0,0.0,9.81,1.0,0.0,0.0,0.0,0.0,0.0,0.0
1752700595072,283.88,18.5,126.13,0.0,0.0,9.81,1.0,0.0,0.0,0.0,0.0,0.0,0.0
1752700595195,284.5,18.81,126.44,0.0,0.0,9.81,1.0,0.0,0.0,0.0,0.0,0.0,0.0
1752700595328,285.63,19.25,127.31,0.0,0.0,9.81,1.0,0.0,0.0,0.0,0.0,0.0,0.0
1752700595449,287.0,19.63,127.0,0.0,0.0,9.81,1.0,0.0,0.0,0.0,0.0,0.0,0.0
1752700595571,288.94,20.25,128.44,0.0,0.0,9.81,1.0,0.0,0.0,0.0,0.0,0.0,0.0
1752700595801,272.69,11.5,119.56,0.0,0.0,9.81,1.0,0.0,0.0,0.0,0.0,0.0,0.0
1752700595912,269.88,8.69,119.75,0.0,0.0,9.81,1.0,0.0,0.0,0.0,0.0,0.0,0.0
1752700596039,266.25,3.81,119.25,0.0,0.0,9.81,1.0,0.0,0.0,0.0,0.0,0.0,0.0
1752700596155,268.88,1.94,119.06,0.0,0.0,9.81,1.0,0.0,0.0,0.0,0.0,0.0,0.0
1752700596281,270.94,-2.38,118.31,0.0,0.0,9.81,1.0,0.0,0.0,0.0,0.0,0.0,0.0
1752700596412,279.31,-5.81,119.06,0.0,0.0,9.81,1.0,0.0,0.0,0.0,0.0,0.0,0.0
1752700596530,286.25,-11.5,120.25,0.0,0.0,9.81,1.0,0.0,0.0,0.0,0.0,0.0,0.0
1752700596654,287.38,-17.63,126.31,0.0,0.0,9.81,1.0,0.0,0.0,0.0,0.0,0.0,0.0
1752700596782,293.44,-20.38,135.31,0.0,0.0,9.81,1.0,0.0,0.0,0.0,0.0,0.0,0.0
1752700596910,304.0,-20.69,138.38,0.0,0.0,9.81,1.0,0.0,0.0,0.0,0.0,0.0,0.0
1752700597028,316.38,-20.44,137.44,0.0,0.0,9.81,1.0,0.0,0.0,0.0,0.0,0.0,0.0
1752700597144,330.38,-21.5,130.13,0.0,0.0,9.81,1.0,0.0,0.0,0.0,0.0,0.0,0.0
1752700597263,337.75,-19.44,121.94,0.0,0.0,9.81,1.0,0.0,0.0,0.0,0.0,0.0,0.0
1752700597495,355.88,-17.5,122.0,0.0,0.0,9.81,1.0,0.0,0.0,0.0,0.0,0.0,0.0
1752700597614,2.69,-18.81,118.25,0.0,0.0,9.81,1.0,0.0,0.0,0.0,0.0,0.0,0.0
1752700597842,17.75,-20.19,108.13,0.0,0.0,9.81,1.0,0.0,0.0,0.0,0.0,0.0,0.0
1752700597957,20.63,-21.5,103.69,0.0,0.0,9.81,1.0,0.0,0.0,0.0,0.0,0.0,0.0
1752700598086,9.38,-26.19,103.38,0.0,0.0,9.81,1.0,0.0,0.0,0.0,0.0,0.0,0.0
1752700598204,329.94,-29.69,117.44,0.0,0.0,9.81,1.0,0.0,0.0,0.0,0.0,0.0,0.0
1752700598331,302.19,-34.06,117.19,0.0,0.0,9.81,1.0,0.0,0.0,0.0,0.0,0.0,0.0
1752700598450,295.13,-26.38,104.94,0.0,0.0,9.81,1.0,0.0,0.0,0.0,0.0,0.0,0.0
1752700598676,298.63,-2.69,97.81,0.0,0.0,9.81,1.0,0.0,0.0,0.0,0.0,0.0,0.0
1752700599002,318.25,25.69,94.88,0.0,0.0,9.81,1.0,0.0,0.0,0.0,0.0,0.0,0.0
1752700599130,321.0,37.5,75.5,0.0,0.0,9.81,1.0,0.0,0.0,0.0,0.0,0.0,0.0
1752700599254,327.94,50.75,61.94,0.0,0.0,9.81,1.0,0.0,0.0,0.0,0.0,0.0,0.0
1752700599375,333.88,58.63,51.13,0.0,0.0,9.81,1.0,0.0,0.0,0.0,0.0,0.0,0.0
1752700599495,337.31,65.25,35.56,0.0,0.0,9.81,1.0,0.0,0.0,0.0,0.0,0.0,0.0
1752700599615,342.13,71.13,13.75,0.0,0.0,9.81,1.0,0.0,0.0,0.0,0.0,0.0,0.0
1752700599740,346.94,73.31,-17.69,0.0,0.0,9.81,1.0,0.0,0.0,0.0,0.0,0.0,0.0
1752700599858,349.75,71.0,-37.13,0.0,0.0,9.81,1.0,0.0,0.0,0.0,0.0,0.0,0.0
1752700600088,352.31,64.75,-51.94,0.0,0.0,9.81,1.0,0.0,0.0,0.0,0.0,0.0,0.0
1752700600215,356.88,62.13,-55.25,0.0,0.0,9.81,1.0,0.0,0.0,0.0,0.0,0.0,0.0
1752700600436,358.25,62.5,-54.94,0.0,0.0,9.81,1.0,0.0,0.0,0.0,0.0,0.0,0.0
1752700600555,358.19,63.0,-53.31,0.0,0.0,9.81,1.0,0.0,0.0,0.0,0.0,0.0,0.0
1752700600673,357.94,64.0,-52.06,0.0,0.0,9.81,1.0,0.0,0.0,0.0,0.0,0.0,0.0
1752700600797,356.31,66.69,-45.25,0.0,0.0,9.81,1.0,0.0,0.0,0.0,0.0,0.0,0.0
1752700600919,355.13,69.75,-35.38,0.0,0.0,9.81,1.0,0.0,0.0,0.0,0.0,0.0,0.0
1752700601052,354.31,72.63,-9.56,0.0,0.0,9.81,1.0,0.0,0.0,0.0,0.0,0.0,0.0
1752700601273,347.0,75.75,38.31,0.0,0.0,9.81,1.0,0.0,0.0,0.0,0.0,0.0,0.0
1752700601393,342.56,72.75,49.75,0.0,0.0,9.81,1.0,0.0,0.0,0.0,0.0,0.0,0.0
1752700601514,332.69,74.19,62.25,0.0,0.0,9.81,1.0,0.0,0.0,0.0,0.0,0.0,0.0
1752700601645,339.75,75.69,55.69,0.0,0.0,9.81,1.0,0.0,0.0,0.0,0.0,0.0,0.0
1752700601860,337.94,69.69,50.75,0.0,0.0,9.81,1.0,0.0,0.0,0.0,0.0,0.0,0.0
1752700601996,338.44,67.44,53.38,0.0,0.0,9.81,1.0,0.0,0.0,0.0,0.0,0.0,0.0
1752700602117,339.06,65.31,60.88,0.0,0.0,9.81,1.0,0.0,0.0,0.0,0.0,0.0,0.0
1752700602327,334.81,60.69,71.5,0.0,0.0,9.81,1.0,0.0,0.0,0.0,0.0,0.0,0.0
1752700602456,332.94,57.81,86.13,0.0,0.0,9.81,1.0,0.0,0.0,0.0,0.0,0.0,0.0
1752700602574,328.31,50.56,103.75,0.0,0.0,9.81,1.0,0.0,0.0,0.0,0.0,0.0,0.0
1752700602694,321.31,39.63,120.5,0.0,0.0,9.81,1.0,0.0,0.0,0.0,0.0,0.0,0.0
1752700602819,306.69,29.25,128.56,0.0,0.0,9.81,1.0,0.0,0.0,0.0,0.0,0.0,0.0
1752700602938,54.69,20.69,140.63,0.0,0.0,9.81,1.0,0.0,0.0,0.0,0.0,0.0,0.0
1752700603066,56.94,10.69,146.31,0.0,0.0,9.81,1.0,0.0,0.0,0.0,0.0,0.0,0.0
1752700603193,59.25,6.88,146.5,0.0,0.0,9.81,1.0,0.0,0.0,0.0,0.0,0.0,0.0
1752700603318,59.06,10.19,150.69,0.0,0.0,9.81,1.0,0.0,0.0,0.0,0.0,0.0,0.0
1752700603440,60.25,8.44,152.69,0.0,0.0,9.81,1.0,0.0,0.0,0.0,0.0,0.0,0.0
1752700603567,61.31,7.63,160.25,0.0,0.0,9.81,1.0,0.0,0.0,0.0,0.0,0.0,0.0
1752700603794,63.56,4.56,172.81,0.0,0.0,9.81,1.0,0.0,0.0,0.0,0.0,0.0,0.0
1752700603914,62.31,2.06,174.31,0.0,0.0,9.81,1.0,0.0,0.0,0.0,0.0,0.0,0.0
1752700604041,59.13,-1.94,171.13,0.0,0.0,9.81,1.0,0.0,0.0,0.0,0.0,0.0,0.0
1752700604160,56.25,0.0,168.5,0.0,0.0,9.81,1.0,0.0,0.0,0.0,0.0,0.0,0.0
1752700604289,54.94,0.31,166.94,0.0,0.0,9.81,1.0,0.0,0.0,0.0,0.0,0.0,0.0
1752700604417,57.38,-0.81,159.75,0.0,0.0,9.81,1.0,0.0,0.0,0.0,0.0,0.0,0.0
1752700604644,50.75,4.5,170.19,0.0,0.0,9.81,1.0,0.0,0.0,0.0,0.0,0.0,0.0
1752700604763,46.75,6.88,175.69,0.0,0.0,9.81,1.0,0.0,0.0,0.0,0.0,0.0,0.0
1752700604889,45.69,9.25,179.69,0.0,0.0,9.81,1.0,0.0,0.0,0.0,0.0,0.0,0.0
1752700605010,46.31,8.0,-177.81,0.0,0.0,9.81,1.0,0.0,0.0,0.0,0.0,0.0,0.0
1752700605128,48.0,7.06,-175.69,0.0,0.0,9.81,1.0,0.0,0.0,0.0,0.0,0.0,0.0
1752700605250,48.44,6.94,-173.94,0.0,0.0,9.81,1.0,0.0,0.0,0.0,0.0,0.0,0.0
1752700605486,56.44,4.56,164.38,0.0,0.0,9.81,1.0,0.0,0.0,0.0,0.0,0.0,0.0
1752700605605,61.06,3.19,151.13,0.0,0.0,9.81,1.0,0.0,0.0,0.0,0.0,0.0,0.0
1752700605726,54.31,6.88,166.31,0.0,0.0,9.81,1.0,0.0,0.0,0.0,0.0,0.0,0.0
1752700605843,48.0,9.25,-175.69,0.0,0.0,9.81,1.0,0.0,0.0,0.0,0.0,0.0,0.0
1752700605978,54.75,6.25,162.44,0.0,0.0,9.81,1.0,0.0,0.0,0.0,0.0,0.0,0.0
1752700606092,60.88,3.88,144.94,0.0,0.0,9.81,1.0,0.0,0.0,0.0,0.0,0.0,0.0
1752700606215,53.5,6.75,165.88,0.0,0.0,9.81,1.0,0.0,0.0,0.0,0.0,0.0,0.0
1752700606329,58.0,4.69,148.94,0.0,0.0,9.81,1.0,0.0,0.0,0.0,0.0,0.0,0.0
1752700606454,56.0,5.75,154.75,0.0,0.0,9.81,1.0,0.0,0.0,0.0,0.0,0.0,0.0
1752700606575,55.63,5.81,155.69,0.0,0.0,9.81,1.0,0.0,0.0,0.0,0.0,0.0,0.0
1752700606697,51.94,7.5,170.88,0.0,0.0,9.81,1.0,0.0,0.0,0.0,0.0,0.0,0.0
1752700606817,50.69,7.25,176.06,0.0,0.0,9.81,1.0,0.0,0.0,0.0,0.0,0.0,0.0
1752700606935,54.63,5.81,162.81,0.0,0.0,9.81,1.0,0.0,0.0,0.0,0.0,0.0,0.0
1752700607068,50.5,7.63,173.88,0.0,0.0,9.81,1.0,0.0,0.0,0.0,0.0,0.0,0.0
1752700607284,51.69,6.19,174.25,0.0,0.0,9.81,1.0,0.0,0.0,0.0,0.0,0.0,0.0
1752700607409,56.63,0.88,172.38,0.0,0.0,9.81,1.0,0.0,0.0,0.0,0.0,0.0,0.0
1752700607733,69.88,-17.06,173.19,0.0,0.0,9.81,1.0,0.0,0.0,0.0,0.0,0.0,0.0
1752700607869,74.06,-22.69,175.25,0.0,0.0,9.81,1.0,0.0,0.0,0.0,0.0,0.0,0.0
1752700607978,77.0,-25.69,176.63,0.0,0.0,9.81,1.0,0.0,0.0,0.0,0.0,0.0,0.0
1752700608100,80.44,-28.81,178.0,0.0,0.0,9.81,1.0,0.0,0.0,0.0,0.0,0.0,0.0
1752700608222,82.81,-32.13,-179.38,0.0,0.0,9.81,1.0,0.0,0.0,0.0,0.0,0.0,0.0
1752700608340,84.13,-34.56,-176.25,0.0,0.0,9.81,1.0,0.0,0.0,0.0,0.0,0.0,0.0
1752700608471,85.56,-36.63,-170.44,0.0,0.0,9.81,1.0,0.0,0.0,0.0,0.0,0.0,0.0
1752700608585,89.56,-41.88,-162.75,0.0,0.0,9.81,1.0,0.0,0.0,0.0,0.0,0.0,0.0
1752700608716,51.5,-46.0,-155.75,0.0,0.0,9.81,1.0,0.0,0.0,0.0,0.0,0.0,0.0
1752700608831,49.5,-47.75,-149.88,0.0,0.0,9.81,1.0,0.0,0.0,0.0,0.0,0.0,0.0
1752700608958,48.38,-49.06,-144.81,0.0,0.0,9.81,1.0,0.0,0.0,0.0,0.0,0.0,0.0
1752700609184,45.38,-49.75,-138.81,0.0,0.0,9.81,1.0,0.0,0.0,0.0,0.0,0.0,0.0
1752700609317,41.38,-49.63,-136.31,0.0,0.0,9.81,1.0,0.0,0.0,0.0,0.0,0.0,0.0
1752700609428,43.38,-51.63,-140.38,0.0,0.0,9.81,1.0,0.0,0.0,0.0,0.0,0.0,0.0
1752700609553,34.0,-50.75,-133.13,0.0,0.0,9.81,1.0,0.0,0.0,0.0,0.0,0.0,0.0
1752700609792,25.0,-53.38,-127.69,0.0,0.0,9.81,1.0,0.0,0.0,0.0,0.0,0.0,0.0
1752700609910,33.75,-53.88,-130.56,0.0,0.0,9.81,1.0,0.0,0.0,0.0,0.0,0.0,0.0
1752700610045,6.38,-53.38,-117.31,0.0,0.0,9.81,1.0,0.0,0.0,0.0,0.0,0.0,0.0
1752700610164,12.81,-54.63,-121.44,0.0,0.0,9.81,1.0,0.0,0.0,0.0,0.0,0.0,0.0
1752700610384,32.63,-55.5,-130.06,0.0,0.0,9.81,1.0,0.0,0.0,0.0,0.0,0.0,0.0
1752700610519,31.06,-55.81,-129.81,0.0,0.0,9.81,1.0,0.0,0.0,0.0,0.0,0.0,0.0
1752700610838,43.06,-54.38,-139.63,0.0,0.0,9.81,1.0,0.0,0.0,0.0,0.0,0.0,0.0
1752700610977,75.81,-36.13,-164.56,0.0,0.0,9.81,1.0,0.0,0.0,0.0,0.0,0.0,0.0
1752700611093,63.25,-15.56,-166.13,0.0,0.0,9.81,1.0,0.0,0.0,0.0,0.0,0.0,0.0
1752700611316,53.13,8.69,-170.75,0.0,0.0,9.81,1.0,0.0,0.0,0.0,0.0,0.0,0.0
1752700611437,47.81,21.0,-170.13,0.0,0.0,9.81,1.0,0.0,0.0,0.0,0.0,0.0,0.0
1752700611571,41.63,32.13,-170.31,0.0,0.0,9.81,1.0,0.0,0.0,0.0,0.0,0.0,0.0
1752700611690,35.81,39.19,-171.88,0.0,0.0,9.81,1.0,0.0,0.0,0.0,0.0,0.0,0.0
1752700611809,52.63,45.0,-168.5,0.0,0.0,9.81,1.0,0.0,0.0,0.0,0.0,0.0,0.0
1752700611930,62.0,48.44,-158.81,0.0,0.0,9.81,1.0,0.0,0.0,0.0,0.0,0.0,0.0
1752700612049,77.06,49.63,-145.31,0.0,0.0,9.81,1.0,0.0,0.0,0.0,0.0,0.0,0.0
1752700612180,83.44,49.88,-138.19,0.0,0.0,9.81,1.0,0.0,0.0,0.0,0.0,0.0,0.0
1752700612295,95.31,49.19,-126.81,0.0,0.0,9.81,1.0,0.0,0.0,0.0,0.0,0.0,0.0
1752700612431,110.31,48.0,-111.88,0.0,0.0,9.81,1.0,0.0,0.0,0.0,0.0,0.0,0.0
1752700612540,115.25,47.25,-103.94,0.0,0.0,9.81,1.0,0.0,0.0,0.0,0.0,0.0,0.0
1752700612670,117.38,48.0,-96.31,0.0,0.0,9.81,1.0,0.0,0.0,0.0,0.0,0.0,0.0
1752700612797,118.06,46.94,-94.81,0.0,0.0,9.81,1.0,0.0,0.0,0.0,0.0,0.0,0.0
1752700612918,122.56,43.94,-91.31,0.0,0.0,9.81,1.0,0.0,0.0,0.0,0.0,0.0,0.0
1752700613037,121.06,42.56,-99.31,0.0,0.0,9.81,1.0,0.0,0.0,0.0,0.0,0.0,0.0
1752700613164,101.56,43.88,-134.0,0.0,0.0,9.81,1.0,0.0,0.0,0.0,0.0,0.0,0.0
1752700613391,45.25,28.06,164.69,0.0,0.0,9.81,1.0,0.0,0.0,0.0,0.0,0.0,0.0
1752700613512,56.38,16.38,153.38,0.0,0.0,9.81,1.0,0.0,0.0,0.0,0.0,0.0,0.0
1752700613632,65.63,7.13,148.31,0.0,0.0,9.81,1.0,0.0,0.0,0.0,0.0,0.0,0.0
1752700613751,70.13,3.19,149.63,0.0,0.0,9.81,1.0,0.0,0.0,0.0,0.0,0.0,0.0
1752700613982,66.06,2.94,165.81,0.0,0.0,9.81,1.0,0.0,0.0,0.0,0.0,0.0,0.0
1752700614106,65.38,0.44,171.44,0.0,0.0,9.81,1.0,0.0,0.0,0.0,0.0,0.0,0.0
1752700614227,64.81,-0.31,-176.81,0.0,0.0,9.81,1.0,0.0,0.0,0.0,0.0,0.0,0.0
1752700614348,64.0,0.38,-172.31,0.0,0.0,9.81,1.0,0.0,0.0,0.0,0.0,0.0,0.0
1752700614480,62.13,2.94,-166.44,0.0,0.0,9.81,1.0,0.0,0.0,0.0,0.0,0.0,0.0
1752700614591,66.0,6.69,179.88,0.0,0.0,9.81,1.0,0.0,0.0,0.0,0.0,0.0,0.0
1752700614714,75.06,16.63,162.94,0.0,0.0,9.81,1.0,0.0,0.0,0.0,0.0,0.0,0.0
1752700614841,76.94,17.19,163.06,0.0,0.0,9.81,1.0,0.0,0.0,0.0,0.0,0.0,0.0
1752700614960,71.56,21.94,164.63,0.0,0.0,9.81,1.0,0.0,0.0,0.0,0.0,0.0,0.0
1752700615083,68.81,23.0,173.38,0.0,0.0,9.81,1.0,0.0,0.0,0.0,0.0,0.0,0.0
1752700615196,69.06,22.5,176.19,0.0,0.0,9.81,1.0,0.0,0.0,0.0,0.0,0.0,0.0
1752700615328,68.31,18.31,-177.69,0.0,0.0,9.81,1.0,0.0,0.0,0.0,0.0,0.0,0.0
1752700615446,72.38,8.44,-179.81,0.0,0.0,9.81,1.0,0.0,0.0,0.0,0.0,0.0,0.0
1752700615572,80.94,-3.06,173.38,0.0,0.0,9.81,1.0,0.0,0.0,0.0,0.0,0.0,0.0
1752700615693,82.38,-11.5,-177.31,0.0,0.0,9.81,1.0,0.0,0.0,0.0,0.0,0.0,0.0
1752700615820,89.81,-17.06,-175.31,0.0,0.0,9.81,1.0,0.0,0.0,0.0,0.0,0.0,0.0
1752700615946,98.81,-23.5,-171.44,0.0,0.0,9.81,1.0,0.0,0.0,0.0,0.0,0.0,0.0
1752700616065,106.19,-31.31,175.0,0.0,0.0,9.81,1.0,0.0,0.0,0.0,0.0,0.0,0.0
1752700616185,99.94,-29.38,169.31,0.0,0.0,9.81,1.0,0.0,0.0,0.0,0.0,0.0,0.0
1752700616306,96.31,-27.75,163.81,0.0,0.0,9.81,1.0,0.0,0.0,0.0,0.0,0.0,0.0
1752700616535,231.19,-16.88,136.44,0.0,0.0,9.81,1.0,0.0,0.0,0.0,0.0,0.0,0.0
1752700616657,237.19,-16.13,133.0,0.0,0.0,9.81,1.0,0.0,0.0,0.0,0.0,0.0,0.0
1752700616889,253.69,-8.5,133.69,0.0,0.0,9.81,1.0,0.0,0.0,0.0,0.0,0.0,0.0
1752700617008,96.31,-1.0,139.25,0.0,0.0,9.81,1.0,0.0,0.0,0.0,0.0,0.0,0.0
1752700617134,97.25,3.81,138.13,0.0,0.0,9.81,1.0,0.0,0.0,0.0,0.0,0.0,0.0
1752700617256,99.63,7.81,135.88,0.0,0.0,9.81,1.0,0.0,0.0,0.0,0.0,0.0,0.0
1752700617378,303.69,7.0,132.0,0.0,0.0,9.81,1.0,0.0,0.0,0.0,0.0,0.0,0.0
1752700617499,304.69,7.0,128.44,0.0,0.0,9.81,1.0,0.0,0.0,0.0,0.0,0.0,0.0
1752700617634,311.88,10.31,131.69,0.0,0.0,9.81,1.0,0.0,0.0,0.0,0.0,0.0,0.0
1752700617750,313.81,11.5,129.31,0.0,0.0,9.81,1.0,0.0,0.0,0.0,0.0,0.0,0.0
1752700617877,314.13,11.56,129.5,0.0,0.0,9.81,1.0,0.0,0.0,0.0,0.0,0.0,0.0
1752700618000,108.81,13.5,137.69,0.0,0.0,9.81,1.0,0.0,0.0,0.0,0.0,0.0,0.0
1752700618111,5.69,23.75,135.06,0.0,0.0,9.81,1.0,0.0,0.0,0.0,0.0,0.0,0.0
1752700618238,55.56,39.38,143.5,0.0,0.0,9.81,1.0,0.0,0.0,0.0,0.0,0.0,0.0
1752700618357,73.38,46.81,149.81,0.0,0.0,9.81,1.0,0.0,0.0,0.0,0.0,0.0,0.0
1752700618489,81.5,49.0,155.25,0.0,0.0,9.81,1.0,0.0,0.0,0.0,0.0,0.0,0.0
1752700618611,82.19,48.31,155.88,0.0,0.0,9.81,1.0,0.0,0.0,0.0,0.0,0.0,0.0
1752700618741,78.5,46.94,154.5,0.0,0.0,9.81,1.0,0.0,0.0,0.0,0.0,0.0,0.0
1752700618868,78.38,46.94,154.44,0.0,0.0,9.81,1.0,0.0,0.0,0.0,0.0,0.0,0.0
1752700618986,77.38,46.5,154.88,0.0,0.0,9.81,1.0,0.0,0.0,0.0,0.0,0.0,0.0
1752700619211,76.13,45.13,156.25,0.0,0.0,9.81,1.0,0.0,0.0,0.0,0.0,0.0,0.0
1752700619331,70.75,44.25,156.19,0.0,0.0,9.81,1.0,0.0,0.0,0.0,0.0,0.0,0.0
1752700619452,46.5,57.5,135.94,0.0,0.0,9.81,1.0,0.0,0.0,0.0,0.0,0.0,0.0
1752700619573,38.94,68.88,120.06,0.0,0.0,9.81,1.0,0.0,0.0,0.0,0.0,0.0,0.0
1752700619797,37.13,79.13,110.94,0.0,0.0,9.81,1.0,0.0,0.0,0.0,0.0,0.0,0.0
1752700619917,38.06,82.63,106.0,0.0,0.0,9.81,1.0,0.0,0.0,0.0,0.0,0.0,0.0
1752700620046,35.88,81.5,98.0,0.0,0.0,9.81,1.0,0.0,0.0,0.0,0.0,0.0,0.0
1752700620172,39.75,72.44,160.69,0.0,0.0,9.81,1.0,0.0,0.0,0.0,0.0,0.0,0.0
1752700620292,16.06,43.06,158.69,0.0,0.0,9.81,1.0,0.0,0.0,0.0,0.0,0.0,0.0
1752700620416,76.88,-22.81,165.0,0.0,0.0,9.81,1.0,0.0,0.0,0.0,0.0,0.0,0.0
1752700620535,78.38,-70.0,178.75,0.0,0.0,9.81,1.0,0.0,0.0,0.0,0.0,0.0,0.0
1752700620659,56.13,-71.06,178.0,0.0,0.0,9.81,1.0,0.0,0.0,0.0,0.0,0.0,0.0
1752700620781,54.38,-73.88,170.88,0.0,0.0,9.81,1.0,0.0,0.0,0.0,0.0,0.0,0.0
1752700620903,54.63,-72.44,167.5,0.0,0.0,9.81,1.0,0.0,0.0,0.0,0.0,0.0,0.0
1752700621016,57.38,-71.94,167.94,0.0,0.0,9.81,1.0,0.0,0.0,0.0,0.0,0.0,0.0
1752700621143,57.88,-72.88,171.25,0.0,0.0,9.81,1.0,0.0,0.0,0.0,0.0,0.0,0.0
1752700621263,58.13,-77.5,177.31,0.0,0.0,9.81,1.0,0.0,0.0,0.0,0.0,0.0,0.0
1752700621385,61.63,-79.06,179.5,0.0,0.0,9.81,1.0,0.0,0.0,0.0,0.0,0.0,0.0
1752700621613,59.38,-63.25,156.5,0.0,0.0,9.81,1.0,0.0,0.0,0.0,0.0,0.0,0.0
1752700621736,49.19,-67.5,159.63,0.0,0.0,9.81,1.0,0.0,0.0,0.0,0.0,0.0,0.0
1752700621857,52.5,-72.63,154.81,0.0,0.0,9.81,1.0,0.0,0.0,0.0,0.0,0.0,0.0
1752700621983,47.44,-77.13,161.31,0.0,0.0,9.81,1.0,0.0,0.0,0.0,0.0,0.0,0.0
1752700622101,47.25,-77.25,162.25,0.0,0.0,9.81,1.0,0.0,0.0,0.0,0.0,0.0,0.0
1752700622228,47.63,-78.44,167.25,0.0,0.0,9.81,1.0,0.0,0.0,0.0,0.0,0.0,0.0
1752700622349,46.44,-80.56,177.69,0.0,0.0,9.81,1.0,0.0,0.0,0.0,0.0,0.0,0.0
1752700622465,48.06,-80.5,176.25,0.0,0.0,9.81,1.0,0.0,0.0,0.0,0.0,0.0,0.0
1752700622588,51.5,-76.81,167.63,0.0,0.0,9.81,1.0,0.0,0.0,0.0,0.0,0.0,0.0
1752700622709,48.06,-71.75,155.63,0.0,0.0,9.81,1.0,0.0,0.0,0.0,0.0,0.0,0.0
1752700622837,48.19,-67.81,151.63,0.0,0.0,9.81,1.0,0.0,0.0,0.0,0.0,0.0,0.0
1752700622968,44.19,-68.75,154.06,0.0,0.0,9.81,1.0,0.0,0.0,0.0,0.0,0.0,0.0
1752700623089,55.31,-75.5,143.38,0.0,0.0,9.81,1.0,0.0,0.0,0.0,0.0,0.0,0.0
1752700623208,58.44,-77.63,144.31,0.0,0.0,9.81,1.0,0.0,0.0,0.0,0.0,0.0,0.0
1752700623332,57.06,-76.63,152.81,0.0,0.0,9.81,1.0,0.0,0.0,0.0,0.0,0.0,0.0
1752700623456,55.69,-73.25,158.81,0.0,0.0,9.81,1.0,0.0,0.0,0.0,0.0,0.0,0.0
1752700623584,56.38,-69.13,159.56,0.0,0.0,9.81,1.0,0.0,0.0,0.0,0.0,0.0,0.0
1752700623701,57.31,-69.13,157.5,0.0,0.0,9.81,1.0,0.0,0.0,0.0,0.0,0.0,0.0
1752700623826,52.56,-70.44,158.31,0.0,0.0,9.81,1.0,0.0,0.0,0.0,0.0,0.0,0.0
1752700623947,51.81,-70.06,157.56,0.0,0.0,9.81,1.0,0.0,0.0,0.0,0.0,0.0,0.0
1752700624067,48.0,-69.31,157.75,0.0,0.0,9.81,1.0,0.0,0.0,0.0,0.0,0.0,0.0
1752700624199,38.94,-71.69,153.88,0.0,0.0,9.81,1.0,0.0,0.0,0.0,0.0,0.0,0.0
1752700624319,38.5,-73.13,148.0,0.0,0.0,9.81,1.0,0.0,0.0,0.0,0.0,0.0,0.0
1752700624433,37.5,-72.94,149.75,0.0,0.0,9.81,1.0,0.0,0.0,0.0,0.0,0.0,0.0
1752700624667,39.06,-69.88,153.5,0.0,0.0,9.81,1.0,0.0,0.0,0.0,0.0,0.0,0.0
1752700624788,37.63,-71.25,153.75,0.0,0.0,9.81,1.0,0.0,0.0,0.0,0.0,0.0,0.0
1752700624909,39.25,-72.13,152.25,0.0,0.0,9.81,1.0,0.0,0.0,0.0,0.0,0.0,0.0
1752700625232,44.81,-72.63,142.06,0.0,0.0,9.81,1.0,0.0,0.0,0.0,0.0,0.0,0.0
1752700625364,42.5,-72.63,145.0,0.0,0.0,9.81,1.0,0.0,0.0,0.0,0.0,0.0,0.0
1752700625476,42.0,-72.69,148.75,0.0,0.0,9.81,1.0,0.0,0.0,0.0,0.0,0.0,0.0
1752700625604,43.63,-73.5,145.88,0.0,0.0,9.81,1.0,0.0,0.0,0.0,0.0,0.0,0.0
1752700625721,45.19,-74.44,141.38,0.0,0.0,9.81,1.0,0.0,0.0,0.0,0.0,0.0,0.0
1752700625955,51.31,-73.25,142.88,0.0,0.0,9.81,1.0,0.0,0.0,0.0,0.0,0.0,0.0
1752700626072,60.94,-72.56,138.38,0.0,0.0,9.81,1.0,0.0,0.0,0.0,0.0,0.0,0.0
1752700626209,61.75,-76.0,133.25,0.0,0.0,9.81,1.0,0.0,0.0,0.0,0.0,0.0,0.0
1752700626323,61.06,-74.75,140.94,0.0,0.0,9.81,1.0,0.0,0.0,0.0,0.0,0.0,0.0
1752700626447,59.75,-57.75,157.38,0.0,0.0,9.81,1.0,0.0,0.0,0.0,0.0,0.0,0.0
1752700626668,56.88,-50.44,161.31,0.0,0.0,9.81,1.0,0.0,0.0,0.0,0.0,0.0,0.0
1752700626797,60.31,-57.56,159.63,0.0,0.0,9.81,1.0,0.0,0.0,0.0,0.0,0.0,0.0
1752700626917,65.31,-66.13,144.56,0.0,0.0,9.81,1.0,0.0,0.0,0.0,0.0,0.0,0.0
1752700627049,67.31,-71.88,138.5,0.0,0.0,9.81,1.0,0.0,0.0,0.0,0.0,0.0,0.0
1752700627175,72.63,-70.38,147.44,0.0,0.0,9.81,1.0,0.0,0.0,0.0,0.0,0.0,0.0
1752700627293,78.75,-77.5,154.0,0.0,0.0,9.81,1.0,0.0,0.0,0.0,0.0,0.0,0.0
1752700627413,59.06,-77.25,172.38,0.0,0.0,9.81,1.0,0.0,0.0,0.0,0.0,0.0,0.0
1752700627537,57.31,-77.69,166.38,0.0,0.0,9.81,1.0,0.0,0.0,0.0,0.0,0.0,0.0
1752700627655,66.19,-85.0,178.13,0.0,0.0,9.81,1.0,0.0,0.0,0.0,0.0,0.0,0.0
1752700627776,71.63,-87.75,0.63,0.0,0.0,9.81,1.0,0.0,0.0,0.0,0.0,0.0,0.0
1752700627900,79.44,-88.19,0.81,0.0,0.0,9.81,1.0,0.0,0.0,0.0,0.0,0.0,0.0
1752700628021,82.13,-87.13,-0.56,0.0,0.0,9.81,1.0,0.0,0.0,0.0,0.0,0.0,0.0
1752700628152,83.06,-88.25,0.0,0.0,0.0,9.81,1.0,0.0,0.0,0.0,0.0,0.0,0.0
1752700628278,84.13,-88.75,1.06,0.0,0.0,9.81,1.0,0.0,0.0,0.0,0.0,0.0,0.0
1752700628401,84.94,-85.94,176.31,0.0,0.0,9.81,1.0,0.0,0.0,0.0,0.0,0.0,0.0
1752700628522,82.31,-83.63,174.44,0.0,0.0,9.81,1.0,0.0,0.0,0.0,0.0,0.0,0.0
1752700628651,79.56,-81.19,133.56,0.0,0.0,9.81,1.0,0.0,0.0,0.0,0.0,0.0,0.0
1752700628772,76.63,-80.69,141.38,0.0,0.0,9.81,1.0,0.0,0.0,0.0,0.0,0.0,0.0
1752700628898,79.0,-82.25,136.75,0.0,0.0,9.81,1.0,0.0,0.0,0.0,0.0,0.0,0.0
1752700629019,81.69,-82.5,134.94,0.0,0.0,9.81,1.0,0.0,0.0,0.0,0.0,0.0,0.0
1752700629139,83.63,-81.56,130.13,0.0,0.0,9.81,1.0,0.0,0.0,0.0,0.0,0.0,0.0
1752700629261,78.81,-81.88,129.81,0.0,0.0,9.81,1.0,0.0,0.0,0.0,0.0,0.0,0.0
1752700629380,78.31,-82.38,125.69,0.0,0.0,9.81,1.0,0.0,0.0,0.0,0.0,0.0,0.0
1752700629506,79.19,-80.44,123.56,0.0,0.0,9.81,1.0,0.0,0.0,0.0,0.0,0.0,0.0
1752700629631,78.44,-80.19,118.81,0.0,0.0,9.81,1.0,0.0,0.0,0.0,0.0,0.0,0.0
1752700629755,76.38,-79.56,121.06,0.0,0.0,9.81,1.0,0.0,0.0,0.0,0.0,0.0,0.0
1752700629986,72.31,-80.38,131.44,0.0,0.0,9.81,1.0,0.0,0.0,0.0,0.0,0.0,0.0
1752700630117,72.88,-81.25,131.38,0.0,0.0,9.81,1.0,0.0,0.0,0.0,0.0,0.0,0.0
1752700630237,72.94,-82.19,125.75,0.0,0.0,9.81,1.0,0.0,0.0,0.0,0.0,0.0,0.0
1752700630472,72.63,-82.38,122.38,0.0,0.0,9.81,1.0,0.0,0.0,0.0,0.0,0.0,0.0
1752700630897,69.94,-83.5,173.69,0.0,0.0,9.81,1.0,0.0,0.0,0.0,0.0,0.0,0.0
1752700631123,71.31,-84.0,5.94,0.0,0.0,9.81,1.0,0.0,0.0,0.0,0.0,0.0,0.0
1752700631242,68.88,-85.25,175.31,0.0,0.0,9.81,1.0,0.0,0.0,0.0,0.0,0.0,0.0
1752700631370,71.0,-84.38,5.5,0.0,0.0,9.81,1.0,0.0,0.0,0.0,0.0,0.0,0.0
1752700631486,71.25,-84.31,174.31,0.0,0.0,9.81,1.0,0.0,0.0,0.0,0.0,0.0,0.0
1752700631617,69.88,-84.63,174.69,0.0,0.0,9.81,1.0,0.0,0.0,0.0,0.0,0.0,0.0
1752700631737,67.69,-84.81,174.94,0.0,0.0,9.81,1.0,0.0,0.0,0.0,0.0,0.0,0.0
1752700631865,67.69,-84.81,4.56,0.0,0.0,9.81,1.0,0.0,0.0,0.0,0.0,0.0,0.0
1752700631985,67.63,-83.44,5.38,0.0,0.0,9.81,1.0,0.0,0.0,0.0,0.0,0.0,0.0
1752700632113,67.94,-82.88,50.5,0.0,0.0,9.81,1.0,0.0,0.0,0.0,0.0,0.0,0.0
1752700632243,68.5,-83.19,5.06,0.0,0.0,9.81,1.0,0.0,0.0,0.0,0.0,0.0,0.0
1752700632462,71.75,-83.25,6.69,0.0,0.0,9.81,1.0,0.0,0.0,0.0,0.0,0.0,0.0
1752700632586,70.56,-82.88,80.69,0.0,0.0,9.81,1.0,0.0,0.0,0.0,0.0,0.0,0.0
1752700632709,71.88,-82.0,81.38,0.0,0.0,9.81,1.0,0.0,0.0,0.0,0.0,0.0,0.0
1752700632839,73.0,-81.0,92.13,0.0,0.0,9.81,1.0,0.0,0.0,0.0,0.0,0.0,0.0
1752700632952,74.25,-79.5,92.56,0.0,0.0,9.81,1.0,0.0,0.0,0.0,0.0,0.0,0.0
1752700633084,74.63,-79.81,83.81,0.0,0.0,9.81,1.0,0.0,0.0,0.0,0.0,0.0,0.0
1752700633295,75.38,-80.0,95.06,0.0,0.0,9.81,1.0,0.0,0.0,0.0,0.0,0.0,0.0
1752700633421,74.56,-79.94,95.25,0.0,0.0,9.81,1.0,0.0,0.0,0.0,0.0,0.0,0.0
1752700633534,73.69,-80.13,95.81,0.0,0.0,9.81,1.0,0.0,0.0,0.0,0.0,0.0,0.0
1752700633667,73.63,-80.25,96.44,0.0,0.0,9.81,1.0,0.0,0.0,0.0,0.0,0.0,0.0
1752700633989,74.19,-80.31,97.44,0.0,0.0,9.81,1.0,0.0,0.0,0.0,0.0,0.0,0.0
1752700634123,74.13,-80.31,97.19,0.0,0.0,9.81,1.0,0.0,0.0,0.0,0.0,0.0,0.0
1752700634346,73.63,-80.19,96.31,0.0,0.0,9.81,1.0,0.0,0.0,0.0,0.0,0.0,0.0
1752700634464,73.69,-80.13,97.06,0.0,0.0,9.81,1.0,0.0,0.0,0.0,0.0,0.0,0.0
1752700634599,73.56,-80.06,97.0,0.0,0.0,9.81,1.0,0.0,0.0,0.0,0.0,0.0,0.0
1752700634718,73.31,-80.13,97.0,0.0,0.0,9.81,1.0,0.0,0.0,0.0,0.0,0.0,0.0
1752700634943,73.5,-80.19,96.69,0.0,0.0,9.81,1.0,0.0,0.0,0.0,0.0,0.0,0.0
1752700635066,73.56,-80.25,96.88,0.0,0.0,9.81,1.0,0.0,0.0,0.0,0.0,0.0,0.0
1752700635296,73.5,-80.31,97.06,0.0,0.0,9.81,1.0,0.0,0.0,0.0,0.0,0.0,0.0
1752700635426,73.31,-80.25,96.81,0.0,0.0,9.81,1.0,0.0,0.0,0.0,0.0,0.0,0.0
1752700635543,73.19,-80.25,96.75,0.0,0.0,9.81,1.0,0.0,0.0,0.0,0.0,0.0,0.0
1752700635677,73.25,-80.19,96.81,0.0,0.0,9.81,1.0,0.0,0.0,0.0,0.0,0.0,0.0
1752700635796,73.31,-80.19,97.31,0.0,0.0,9.81,1.0,0.0,0.0,0.0,0.0,0.0,0.0
1752700635916,73.31,-80.19,98.13,0.0,0.0,9.81,1.0,0.0,0.0,0.0,0.0,0.0,0.0
1752700636058,73.31,-80.13,98.0,0.0,0.0,9.81,1.0,0.0,0.0,0.0,0.0,0.0,0.0
1752700636179,73.25,-80.13,98.0,0.0,0.0,9.81,1.0,0.0,0.0,0.0,0.0,0.0,0.0
1752700636297,73.44,-80.06,98.06,0.0,0.0,9.81,1.0,0.0,0.0,0.0,0.0,0.0,0.0
1752700636429,73.5,-79.88,98.31,0.0,0.0,9.81,1.0,0.0,0.0,0.0,0.0,0.0,0.0
1752700636656,73.56,-79.81,98.0,0.0,0.0,9.81,1.0,0.0,0.0,0.0,0.0,0.0,0.0
1752700636784,73.31,-79.81,97.63,0.0,0.0,9.81,1.0,0.0,0.0,0.0,0.0,0.0,0.0
1752700636894,73.19,-79.75,97.75,0.0,0.0,9.81,1.0,0.0,0.0,0.0,0.0,0.0,0.0
1752700637120,72.94,-79.75,97.38,0.0,0.0,9.81,1.0,0.0,0.0,0.0,0.0,0.0,0.0
1752700637242,73.0,-79.63,97.38,0.0,0.0,9.81,1.0,0.0,0.0,0.0,0.0,0.0,0.0
1752700637373,73.0,-79.63,97.38,0.0,0.0,9.81,1.0,0.0,0.0,0.0,0.0,0.0,0.0
1752700637598,73.0,-79.56,96.81,0.0,0.0,9.81,1.0,0.0,0.0,0.0,0.0,0.0,0.0
1752700637727,72.88,-79.5,97.25,0.0,0.0,9.81,1.0,0.0,0.0,0.0,0.0,0.0,0.0
1752700637854,73.25,-79.25,95.88,0.0,0.0,9.81,1.0,0.0,0.0,0.0,0.0,0.0,0.0
1752700637974,77.19,-78.25,94.75,0.0,0.0,9.81,1.0,0.0,0.0,0.0,0.0,0.0,0.0
1752700638098,80.75,-77.44,92.19,0.0,0.0,9.81,1.0,0.0,0.0,0.0,0.0,0.0,0.0
1752700638215,82.06,-77.5,94.06,0.0,0.0,9.81,1.0,0.0,0.0,0.0,0.0,0.0,0.0
1752700638338,84.38,-78.25,91.25,0.0,0.0,9.81,1.0,0.0,0.0,0.0,0.0,0.0,0.0
1752700638466,86.25,-78.38,95.06,0.0,0.0,9.81,1.0,0.0,0.0,0.0,0.0,0.0,0.0
1752700638594,83.13,-77.81,113.75,0.0,0.0,9.81,1.0,0.0,0.0,0.0,0.0,0.0,0.0
1752700638715,79.19,-76.69,131.81,0.0,0.0,9.81,1.0,0.0,0.0,0.0,0.0,0.0,0.0
1752700638834,75.13,-75.06,149.75,0.0,0.0,9.81,1.0,0.0,0.0,0.0,0.0,0.0,0.0
1752700638955,76.63,-74.19,150.31,0.0,0.0,9.81,1.0,0.0,0.0,0.0,0.0,0.0,0.0
1752700639079,81.63,-77.75,140.25,0.0,0.0,9.81,1.0,0.0,0.0,0.0,0.0,0.0,0.0
1752700639300,76.63,-77.19,132.31,0.0,0.0,9.81,1.0,0.0,0.0,0.0,0.0,0.0,0.0
1752700639425,77.69,-77.13,131.19,0.0,0.0,9.81,1.0,0.0,0.0,0.0,0.0,0.0,0.0
1752700639546,73.81,-76.63,134.88,0.0,0.0,9.81,1.0,0.0,0.0,0.0,0.0,0.0,0.0
1752700639668,65.19,-73.25,135.56,0.0,0.0,9.81,1.0,0.0,0.0,0.0,0.0,0.0,0.0
1752700639893,59.31,-74.44,133.44,0.0,0.0,9.81,1.0,0.0,0.0,0.0,0.0,0.0,0.0
1752700640011,57.81,-74.25,131.5,0.0,0.0,9.81,1.0,0.0,0.0,0.0,0.0,0.0,0.0
1752700640135,57.38,-71.69,131.38,0.0,0.0,9.81,1.0,0.0,0.0,0.0,0.0,0.0,0.0
1752700640255,53.25,-69.75,144.25,0.0,0.0,9.81,1.0,0.0,0.0,0.0,0.0,0.0,0.0
1752700640375,41.75,-66.75,165.75,0.0,0.0,9.81,1.0,0.0,0.0,0.0,0.0,0.0,0.0
1752700640507,27.5,-68.63,-173.94,0.0,0.0,9.81,1.0,0.0,0.0,0.0,0.0,0.0,0.0
1752700640627,20.13,-69.81,-159.63,0.0,0.0,9.81,1.0,0.0,0.0,0.0,0.0,0.0,0.0
1752700640747,15.5,-67.88,-147.19,0.0,0.0,9.81,1.0,0.0,0.0,0.0,0.0,0.0,0.0
1752700640872,11.0,-64.25,-135.25,0.0,0.0,9.81,1.0,0.0,0.0,0.0,0.0,0.0,0.0
1752700641097,11.06,-55.56,-132.25,0.0,0.0,9.81,1.0,0.0,0.0,0.0,0.0,0.0,0.0
1752700641219,14.88,-44.25,-153.94,0.0,0.0,9.81,1.0,0.0,0.0,0.0,0.0,0.0,0.0
1752700641341,59.31,-31.13,-162.94,0.0,0.0,9.81,1.0,0.0,0.0,0.0,0.0,0.0,0.0
1752700641461,46.69,-21.81,-154.38,0.0,0.0,9.81,1.0,0.0,0.0,0.0,0.0,0.0,0.0
1752700641589,48.13,-12.5,-142.63,0.0,0.0,9.81,1.0,0.0,0.0,0.0,0.0,0.0,0.0
1752700641817,55.69,-7.31,-139.19,0.0,0.0,9.81,1.0,0.0,0.0,0.0,0.0,0.0,0.0
1752700641945,55.56,-7.63,-136.63,0.0,0.0,9.81,1.0,0.0,0.0,0.0,0.0,0.0,0.0
1752700642058,48.94,-8.69,-140.56,0.0,0.0,9.81,1.0,0.0,0.0,0.0,0.0,0.0,0.0
1752700642192,45.56,1.56,-144.31,0.0,0.0,9.81,1.0,0.0,0.0,0.0,0.0,0.0,0.0
1752700642308,42.81,4.81,-149.81,0.0,0.0,9.81,1.0,0.0,0.0,0.0,0.0,0.0,0.0
1752700642443,47.0,7.13,-155.31,0.0,0.0,9.81,1.0,0.0,0.0,0.0,0.0,0.0,0.0
1752700642559,46.56,9.13,-146.75,0.0,0.0,9.81,1.0,0.0,0.0,0.0,0.0,0.0,0.0
1752700642993,84.63,7.13,159.25,0.0,0.0,9.81,1.0,0.0,0.0,0.0,0.0,0.0,0.0
1752700643312,83.0,6.13,158.88,0.0,0.0,9.81,1.0,0.0,0.0,0.0,0.0,0.0,0.0
1752700643441,82.94,6.19,158.94,0.0,0.0,9.81,1.0,0.0,0.0,0.0,0.0,0.0,0.0
1752700643559,82.94,6.19,158.94,0.0,0.0,9.81,1.0,0.0,0.0,0.0,0.0,0.0,0.0
1752700643687,82.94,6.19,158.94,0.0,0.0,9.81,1.0,0.0,0.0,0.0,0.0,0.0,0.0
1752700643806,82.94,6.19,158.94,0.0,0.0,9.81,1.0,0.0,0.0,0.0,0.0,0.0,0.0
1752700643925,82.94,6.19,158.94,0.0,0.0,9.81,1.0,0.0,0.0,0.0,0.0,0.0,0.0
1752700644051,82.94,6.19,158.94,0.0,0.0,9.81,1.0,0.0,0.0,0.0,0.0,0.0,0.0
1752700644175,82.94,6.19,158.94,0.0,0.0,9.81,1.0,0.0,0.0,0.0,0.0,0.0,0.0
1752700644296,82.94,6.19,158.94,0.0,0.0,9.81,1.0,0.0,0.0,0.0,0.0,0.0,0.0
1752700644417,82.94,6.19,158.94,0.0,0.0,9.81,1.0,0.0,0.0,0.0,0.0,0.0,0.0
1752700644543,82.94,6.19,158.94,0.0,0.0,9.81,1.0,0.0,0.0,0.0,0.0,0.0,0.0
1752700644867,82.94,6.19,158.94,0.0,0.0,9.81,1.0,0.0,0.0,0.0,0.0,0.0,0.0
1752700644998,82.94,6.19,158.94,0.0,0.0,9.81,1.0,0.0,0.0,0.0,0.0,0.0,0.0
1752700645110,82.94,6.19,158.94,0.0,0.0,9.81,1.0,0.0,0.0,0.0,0.0,0.0,0.0
1752700645239,82.94,6.19,158.94,0.0,0.0,9.81,1.0,0.0,0.0,0.0,0.0,0.0,0.0
1752700645355,82.94,6.19,158.94,0.0,0.0,9.81,1.0,0.0,0.0,0.0,0.0,0.0,0.0
1752700645482,82.94,6.19,158.94,0.0,0.0,9.81,1.0,0.0,0.0,0.0,0.0,0.0,0.0
1752700645600,82.94,6.19,158.94,0.0,0.0,9.81,1.0,0.0,0.0,0.0,0.0,0.0,0.0
1752700645725,82.94,6.19,158.94,0.0,0.0,9.81,1.0,0.0,0.0,0.0,0.0,0.0,0.0
1752700645846,82.94,6.19,158.94,0.0,0.0,9.81,1.0,0.0,0.0,0.0,0.0,0.0,0.0
1752700645966,82.94,6.19,158.94,0.0,0.0,9.81,1.0,0.0,0.0,0.0,0.0,0.0,0.0
1752700646099,82.94,6.19,158.94,0.0,0.0,9.81,1.0,0.0,0.0,0.0,0.0,0.0,0.0
1752700646212,82.94,6.19,158.94,0.0,0.0,9.81,1.0,0.0,0.0,0.0,0.0,0.0,0.0
