timestamp,heading,roll,pitch,acc_x,acc_y,acc_z,quat_w,quat_x,quat_y,quat_z,mag_x,mag_y,mag_z
1752597915351,359.94,-0.75,3.5,0.0,0.0,9.81,1.0,0.0,0.0,0.0,0.0,0.0,0.0
1752597915352,359.94,-0.75,3.5,0.0,0.0,9.81,1.0,0.0,0.0,0.0,0.0,0.0,0.0
1752597915354,359.94,-0.75,3.5,0.0,0.0,9.81,1.0,0.0,0.0,0.0,0.0,0.0,0.0
1752597915355,359.94,-0.75,3.5,0.0,0.0,9.81,1.0,0.0,0.0,0.0,0.0,0.0,0.0
1752597915466,359.94,-0.75,3.5,0.0,0.0,9.81,1.0,0.0,0.0,0.0,0.0,0.0,0.0
1752597915588,359.94,-0.75,3.5,0.0,0.0,9.81,1.0,0.0,0.0,0.0,0.0,0.0,0.0
1752597915708,359.94,-0.75,3.5,0.0,0.0,9.81,1.0,0.0,0.0,0.0,0.0,0.0,0.0
1752597915833,359.94,-0.75,3.5,0.0,0.0,9.81,1.0,0.0,0.0,0.0,0.0,0.0,0.0
1752597915958,359.94,-0.75,3.5,0.0,0.0,9.81,1.0,0.0,0.0,0.0,0.0,0.0,0.0
1752597916181,359.94,-0.75,3.5,0.0,0.0,9.81,1.0,0.0,0.0,0.0,0.0,0.0,0.0
1752597916302,359.94,-0.75,3.5,0.0,0.0,9.81,1.0,0.0,0.0,0.0,0.0,0.0,0.0
1752597916426,359.94,-0.75,3.5,0.0,0.0,9.81,1.0,0.0,0.0,0.0,0.0,0.0,0.0
1752597916549,359.94,-0.75,3.5,0.0,0.0,9.81,1.0,0.0,0.0,0.0,0.0,0.0,0.0
1752597916669,359.94,-0.75,3.5,0.0,0.0,9.81,1.0,0.0,0.0,0.0,0.0,0.0,0.0
1752597916786,359.94,-0.75,3.5,0.0,0.0,9.81,1.0,0.0,0.0,0.0,0.0,0.0,0.0
1752597917119,359.94,-0.75,3.5,0.0,0.0,9.81,1.0,0.0,0.0,0.0,0.0,0.0,0.0
1752597917252,359.94,-0.75,3.5,0.0,0.0,9.81,1.0,0.0,0.0,0.0,0.0,0.0,0.0
1752597917462,3.88,-0.56,3.44,0.0,0.0,9.81,1.0,0.0,0.0,0.0,0.0,0.0,0.0
1752597917588,4.19,-0.5,2.94,0.0,0.0,9.81,1.0,0.0,0.0,0.0,0.0,0.0,0.0
1752597917705,4.38,-0.38,2.25,0.0,0.0,9.81,1.0,0.0,0.0,0.0,0.0,0.0,0.0
1752597917836,4.75,-0.38,2.69,0.0,0.0,9.81,1.0,0.0,0.0,0.0,0.0,0.0,0.0
1752597917952,4.81,-0.38,2.38,0.0,0.0,9.81,1.0,0.0,0.0,0.0,0.0,0.0,0.0
1752597918174,7.81,-0.13,-11.44,0.0,0.0,9.81,1.0,0.0,0.0,0.0,0.0,0.0,0.0
1752597918292,7.75,-0.13,-10.5,0.0,0.0,9.81,1.0,0.0,0.0,0.0,0.0,0.0,0.0
1752597918418,7.56,-0.19,-10.25,0.0,0.0,9.81,1.0,0.0,0.0,0.0,0.0,0.0,0.0
1752597918546,7.56,-0.19,-11.63,0.0,0.0,9.81,1.0,0.0,0.0,0.0,0.0,0.0,0.0
1752597918664,7.69,-0.56,-13.13,0.0,0.0,9.81,1.0,0.0,0.0,0.0,0.0,0.0,0.0
1752597918784,7.19,-3.0,-13.31,0.0,0.0,9.81,1.0,0.0,0.0,0.0,0.0,0.0,0.0
1752597918903,7.63,2.5,-14.56,0.0,0.0,9.81,1.0,0.0,0.0,0.0,0.0,0.0,0.0
1752597919030,7.81,8.19,-10.44,0.0,0.0,9.81,1.0,0.0,0.0,0.0,0.0,0.0,0.0
1752597919151,7.44,12.75,-0.88,0.0,0.0,9.81,1.0,0.0,0.0,0.0,0.0,0.0,0.0
1752597919271,6.56,12.81,4.5,0.0,0.0,9.81,1.0,0.0,0.0,0.0,0.0,0.0,0.0
1752597919397,6.0,12.69,10.38,0.0,0.0,9.81,1.0,0.0,0.0,0.0,0.0,0.0,0.0
1752597919516,6.56,12.06,11.13,0.0,0.0,9.81,1.0,0.0,0.0,0.0,0.0,0.0,0.0
1752597919647,6.38,10.94,10.44,0.0,0.0,9.81,1.0,0.0,0.0,0.0,0.0,0.0,0.0
1752597919880,6.06,10.31,10.44,0.0,0.0,9.81,1.0,0.0,0.0,0.0,0.0,0.0,0.0
1752597919997,6.13,9.88,9.25,0.0,0.0,9.81,1.0,0.0,0.0,0.0,0.0,0.0,0.0
1752597920130,6.19,9.69,9.13,0.0,0.0,9.81,1.0,0.0,0.0,0.0,0.0,0.0,0.0
1752597920246,6.44,9.5,8.75,0.0,0.0,9.81,1.0,0.0,0.0,0.0,0.0,0.0,0.0
1752597920370,6.5,9.5,8.44,0.0,0.0,9.81,1.0,0.0,0.0,0.0,0.0,0.0,0.0
1752597920498,6.56,9.38,8.0,0.0,0.0,9.81,1.0,0.0,0.0,0.0,0.0,0.0,0.0
1752597920622,6.75,9.25,7.81,0.0,0.0,9.81,1.0,0.0,0.0,0.0,0.0,0.0,0.0
1752597920749,6.94,9.19,7.88,0.0,0.0,9.81,1.0,0.0,0.0,0.0,0.0,0.0,0.0
1752597920983,6.94,8.94,7.88,0.0,0.0,9.81,1.0,0.0,0.0,0.0,0.0,0.0,0.0
1752597921101,6.88,9.06,7.69,0.0,0.0,9.81,1.0,0.0,0.0,0.0,0.0,0.0,0.0
1752597921327,6.88,8.69,7.81,0.0,0.0,9.81,1.0,0.0,0.0,0.0,0.0,0.0,0.0
1752597921455,7.13,8.38,7.63,0.0,0.0,9.81,1.0,0.0,0.0,0.0,0.0,0.0,0.0
1752597921586,6.94,8.38,7.5,0.0,0.0,9.81,1.0,0.0,0.0,0.0,0.0,0.0,0.0
1752597921706,7.0,8.13,7.56,0.0,0.0,9.81,1.0,0.0,0.0,0.0,0.0,0.0,0.0
1752597921824,7.06,8.0,7.25,0.0,0.0,9.81,1.0,0.0,0.0,0.0,0.0,0.0,0.0
1752597921949,7.06,7.94,7.25,0.0,0.0,9.81,1.0,0.0,0.0,0.0,0.0,0.0,0.0
1752597922067,7.31,7.56,7.38,0.0,0.0,9.81,1.0,0.0,0.0,0.0,0.0,0.0,0.0
1752597922193,7.31,7.44,7.31,0.0,0.0,9.81,1.0,0.0,0.0,0.0,0.0,0.0,0.0
1752597922311,7.38,7.19,7.25,0.0,0.0,9.81,1.0,0.0,0.0,0.0,0.0,0.0,0.0
1752597922442,7.44,7.31,7.13,0.0,0.0,9.81,1.0,0.0,0.0,0.0,0.0,0.0,0.0
1752597922763,8.13,7.63,6.5,0.0,0.0,9.81,1.0,0.0,0.0,0.0,0.0,0.0,0.0
1752597922887,8.38,7.0,6.5,0.0,0.0,9.81,1.0,0.0,0.0,0.0,0.0,0.0,0.0
1752597923213,8.69,6.25,5.94,0.0,0.0,9.81,1.0,0.0,0.0,0.0,0.0,0.0,0.0
1752597923340,8.75,6.25,5.81,0.0,0.0,9.81,1.0,0.0,0.0,0.0,0.0,0.0,0.0
1752597923463,8.75,6.19,5.81,0.0,0.0,9.81,1.0,0.0,0.0,0.0,0.0,0.0,0.0
1752597923597,8.75,5.94,5.88,0.0,0.0,9.81,1.0,0.0,0.0,0.0,0.0,0.0,0.0
1752597923818,9.06,6.94,6.88,0.0,0.0,9.81,1.0,0.0,0.0,0.0,0.0,0.0,0.0
1752597923941,9.63,7.5,5.69,0.0,0.0,9.81,1.0,0.0,0.0,0.0,0.0,0.0,0.0
1752597924059,10.19,9.19,4.0,0.0,0.0,9.81,1.0,0.0,0.0,0.0,0.0,0.0,0.0
1752597924202,10.81,9.69,3.5,0.0,0.0,9.81,1.0,0.0,0.0,0.0,0.0,0.0,0.0
1752597924521,11.19,10.88,2.88,0.0,0.0,9.81,1.0,0.0,0.0,0.0,0.0,0.0,0.0
1752597924739,10.94,9.69,2.75,0.0,0.0,9.81,1.0,0.0,0.0,0.0,0.0,0.0,0.0
1752597924858,10.94,9.69,2.81,0.0,0.0,9.81,1.0,0.0,0.0,0.0,0.0,0.0,0.0
1752597925090,10.81,9.63,3.13,0.0,0.0,9.81,1.0,0.0,0.0,0.0,0.0,0.0,0.0
1752597925313,10.81,8.94,2.69,0.0,0.0,9.81,1.0,0.0,0.0,0.0,0.0,0.0,0.0
1752597925545,10.75,8.63,3.0,0.0,0.0,9.81,1.0,0.0,0.0,0.0,0.0,0.0,0.0
1752597925665,10.81,8.63,3.0,0.0,0.0,9.81,1.0,0.0,0.0,0.0,0.0,0.0,0.0
1752597925896,10.75,8.38,3.31,0.0,0.0,9.81,1.0,0.0,0.0,0.0,0.0,0.0,0.0
1752597926015,10.44,8.44,3.81,0.0,0.0,9.81,1.0,0.0,0.0,0.0,0.0,0.0,0.0
1752597926149,10.25,8.44,4.31,0.0,0.0,9.81,1.0,0.0,0.0,0.0,0.0,0.0,0.0
1752597926369,10.38,7.88,4.25,0.0,0.0,9.81,1.0,0.0,0.0,0.0,0.0,0.0,0.0
1752597926493,10.19,7.88,3.94,0.0,0.0,9.81,1.0,0.0,0.0,0.0,0.0,0.0,0.0
1752597926633,10.25,7.44,3.88,0.0,0.0,9.81,1.0,0.0,0.0,0.0,0.0,0.0,0.0
1752597926748,10.13,7.88,3.88,0.0,0.0,9.81,1.0,0.0,0.0,0.0,0.0,0.0,0.0
1752597926977,10.0,7.69,4.13,0.0,0.0,9.81,1.0,0.0,0.0,0.0,0.0,0.0,0.0
1752597927105,10.06,7.56,4.06,0.0,0.0,9.81,1.0,0.0,0.0,0.0,0.0,0.0,0.0
1752597927222,10.0,7.69,4.13,0.0,0.0,9.81,1.0,0.0,0.0,0.0,0.0,0.0,0.0
1752597927350,10.0,7.69,4.13,0.0,0.0,9.81,1.0,0.0,0.0,0.0,0.0,0.0,0.0
1752597927469,10.06,7.63,4.0,0.0,0.0,9.81,1.0,0.0,0.0,0.0,0.0,0.0,0.0
1752597927792,9.88,7.63,4.0,0.0,0.0,9.81,1.0,0.0,0.0,0.0,0.0,0.0,0.0
1752597928013,9.88,7.38,4.13,0.0,0.0,9.81,1.0,0.0,0.0,0.0,0.0,0.0,0.0
1752597928132,10.0,7.25,4.13,0.0,0.0,9.81,1.0,0.0,0.0,0.0,0.0,0.0,0.0
1752597928259,10.0,7.31,4.13,0.0,0.0,9.81,1.0,0.0,0.0,0.0,0.0,0.0,0.0
1752597928380,10.06,7.44,4.06,0.0,0.0,9.81,1.0,0.0,0.0,0.0,0.0,0.0,0.0
1752597928603,9.88,8.0,4.0,0.0,0.0,9.81,1.0,0.0,0.0,0.0,0.0,0.0,0.0
1752597928721,10.13,8.31,3.88,0.0,0.0,9.81,1.0,0.0,0.0,0.0,0.0,0.0,0.0
1752597928853,10.19,8.94,3.69,0.0,0.0,9.81,1.0,0.0,0.0,0.0,0.0,0.0,0.0
1752597928975,10.31,8.94,3.69,0.0,0.0,9.81,1.0,0.0,0.0,0.0,0.0,0.0,0.0
1752597929092,10.44,8.75,3.69,0.0,0.0,9.81,1.0,0.0,0.0,0.0,0.0,0.0,0.0
1752597929223,10.31,8.5,3.75,0.0,0.0,9.81,1.0,0.0,0.0,0.0,0.0,0.0,0.0
1752597929446,10.06,8.0,3.63,0.0,0.0,9.81,1.0,0.0,0.0,0.0,0.0,0.0,0.0
1752597929680,9.88,7.75,3.94,0.0,0.0,9.81,1.0,0.0,0.0,0.0,0.0,0.0,0.0
1752597929805,9.75,7.44,4.75,0.0,0.0,9.81,1.0,0.0,0.0,0.0,0.0,0.0,0.0
1752597929932,10.19,6.5,4.44,0.0,0.0,9.81,1.0,0.0,0.0,0.0,0.0,0.0,0.0
1752597930151,9.94,6.06,4.75,0.0,0.0,9.81,1.0,0.0,0.0,0.0,0.0,0.0,0.0
1752597930269,10.06,6.13,5.13,0.0,0.0,9.81,1.0,0.0,0.0,0.0,0.0,0.0,0.0
1752597930388,10.25,6.31,5.13,0.0,0.0,9.81,1.0,0.0,0.0,0.0,0.0,0.0,0.0
1752597930613,10.06,6.31,5.5,0.0,0.0,9.81,1.0,0.0,0.0,0.0,0.0,0.0,0.0
1752597930738,10.19,6.63,5.56,0.0,0.0,9.81,1.0,0.0,0.0,0.0,0.0,0.0,0.0
1752597930856,10.31,6.69,5.5,0.0,0.0,9.81,1.0,0.0,0.0,0.0,0.0,0.0,0.0
1752597931079,10.69,7.31,5.44,0.0,0.0,9.81,1.0,0.0,0.0,0.0,0.0,0.0,0.0
1752597931198,10.88,7.94,5.44,0.0,0.0,9.81,1.0,0.0,0.0,0.0,0.0,0.0,0.0
1752597931330,11.44,8.38,5.75,0.0,0.0,9.81,1.0,0.0,0.0,0.0,0.0,0.0,0.0
1752597931448,12.13,8.44,5.75,0.0,0.0,9.81,1.0,0.0,0.0,0.0,0.0,0.0,0.0
1752597931568,12.69,8.75,5.5,0.0,0.0,9.81,1.0,0.0,0.0,0.0,0.0,0.0,0.0
1752597931686,12.75,8.88,5.44,0.0,0.0,9.81,1.0,0.0,0.0,0.0,0.0,0.0,0.0
1752597931922,12.69,8.88,5.44,0.0,0.0,9.81,1.0,0.0,0.0,0.0,0.0,0.0,0.0
1752597932036,12.5,8.81,5.44,0.0,0.0,9.81,1.0,0.0,0.0,0.0,0.0,0.0,0.0
1752597932361,11.06,7.38,5.69,0.0,0.0,9.81,1.0,0.0,0.0,0.0,0.0,0.0,0.0
1752597932480,10.5,6.56,6.31,0.0,0.0,9.81,1.0,0.0,0.0,0.0,0.0,0.0,0.0
1752597932610,10.88,6.5,6.81,0.0,0.0,9.81,1.0,0.0,0.0,0.0,0.0,0.0,0.0
1752597932824,10.0,5.81,6.69,0.0,0.0,9.81,1.0,0.0,0.0,0.0,0.0,0.0,0.0
1752597932955,9.44,5.0,6.69,0.0,0.0,9.81,1.0,0.0,0.0,0.0,0.0,0.0,0.0
1752597933073,9.44,4.94,6.19,0.0,0.0,9.81,1.0,0.0,0.0,0.0,0.0,0.0,0.0
1752597933188,9.88,4.56,6.31,0.0,0.0,9.81,1.0,0.0,0.0,0.0,0.0,0.0,0.0
1752597933319,10.38,5.0,6.31,0.0,0.0,9.81,1.0,0.0,0.0,0.0,0.0,0.0,0.0
1752597933435,10.69,5.25,5.94,0.0,0.0,9.81,1.0,0.0,0.0,0.0,0.0,0.0,0.0
1752597933555,11.13,5.75,5.81,0.0,0.0,9.81,1.0,0.0,0.0,0.0,0.0,0.0,0.0
1752597933687,11.69,6.31,5.5,0.0,0.0,9.81,1.0,0.0,0.0,0.0,0.0,0.0,0.0
1752597934004,12.94,7.69,3.44,0.0,0.0,9.81,1.0,0.0,0.0,0.0,0.0,0.0,0.0
1752597934133,13.69,8.56,2.88,0.0,0.0,9.81,1.0,0.0,0.0,0.0,0.0,0.0,0.0
1752597934271,14.38,8.75,2.19,0.0,0.0,9.81,1.0,0.0,0.0,0.0,0.0,0.0,0.0
1752597934387,14.56,8.94,1.81,0.0,0.0,9.81,1.0,0.0,0.0,0.0,0.0,0.0,0.0
1752597934513,14.88,9.44,1.63,0.0,0.0,9.81,1.0,0.0,0.0,0.0,0.0,0.0,0.0
1752597934640,15.13,9.69,1.31,0.0,0.0,9.81,1.0,0.0,0.0,0.0,0.0,0.0,0.0
1752597934864,15.31,9.56,0.94,0.0,0.0,9.81,1.0,0.0,0.0,0.0,0.0,0.0,0.0
1752597934989,15.25,9.5,0.94,0.0,0.0,9.81,1.0,0.0,0.0,0.0,0.0,0.0,0.0
1752597935116,14.88,8.88,1.06,0.0,0.0,9.81,1.0,0.0,0.0,0.0,0.0,0.0,0.0
1752597935240,14.5,8.44,1.44,0.0,0.0,9.81,1.0,0.0,0.0,0.0,0.0,0.0,0.0
1752597935367,14.13,7.38,2.06,0.0,0.0,9.81,1.0,0.0,0.0,0.0,0.0,0.0,0.0
1752597935600,13.25,5.69,2.81,0.0,0.0,9.81,1.0,0.0,0.0,0.0,0.0,0.0,0.0
1752597935718,13.25,5.25,2.94,0.0,0.0,9.81,1.0,0.0,0.0,0.0,0.0,0.0,0.0
1752597935947,12.94,5.06,3.13,0.0,0.0,9.81,1.0,0.0,0.0,0.0,0.0,0.0,0.0
1752597936080,12.63,5.06,3.25,0.0,0.0,9.81,1.0,0.0,0.0,0.0,0.0,0.0,0.0
1752597936230,12.75,5.31,3.31,0.0,0.0,9.81,1.0,0.0,0.0,0.0,0.0,0.0,0.0
1752597936419,12.25,3.25,4.75,0.0,0.0,9.81,1.0,0.0,0.0,0.0,0.0,0.0,0.0
1752597936542,11.63,2.81,6.44,0.0,0.0,9.81,1.0,0.0,0.0,0.0,0.0,0.0,0.0
1752597936669,11.19,1.88,6.81,0.0,0.0,9.81,1.0,0.0,0.0,0.0,0.0,0.0,0.0
1752597936795,11.0,1.75,6.75,0.0,0.0,9.81,1.0,0.0,0.0,0.0,0.0,0.0,0.0
1752597937010,11.0,1.25,7.0,0.0,0.0,9.81,1.0,0.0,0.0,0.0,0.0,0.0,0.0
1752597937133,10.88,0.81,7.13,0.0,0.0,9.81,1.0,0.0,0.0,0.0,0.0,0.0,0.0
1752597937360,10.88,0.31,7.5,0.0,0.0,9.81,1.0,0.0,0.0,0.0,0.0,0.0,0.0
1752597937492,10.88,-0.13,7.5,0.0,0.0,9.81,1.0,0.0,0.0,0.0,0.0,0.0,0.0
1752597937623,10.88,-0.94,7.5,0.0,0.0,9.81,1.0,0.0,0.0,0.0,0.0,0.0,0.0
1752597937737,10.81,-1.25,7.63,0.0,0.0,9.81,1.0,0.0,0.0,0.0,0.0,0.0,0.0
1752597937867,10.81,-1.63,7.63,0.0,0.0,9.81,1.0,0.0,0.0,0.0,0.0,0.0,0.0
1752597937994,10.75,-2.06,7.69,0.0,0.0,9.81,1.0,0.0,0.0,0.0,0.0,0.0,0.0
1752597938204,10.75,-2.75,7.81,0.0,0.0,9.81,1.0,0.0,0.0,0.0,0.0,0.0,0.0
1752597938334,10.69,-3.13,7.94,0.0,0.0,9.81,1.0,0.0,0.0,0.0,0.0,0.0,0.0
1752597938468,10.75,-3.63,8.0,0.0,0.0,9.81,1.0,0.0,0.0,0.0,0.0,0.0,0.0
1752597938586,10.63,-4.44,8.13,0.0,0.0,9.81,1.0,0.0,0.0,0.0,0.0,0.0,0.0
1752597938710,10.38,-4.44,8.38,0.0,0.0,9.81,1.0,0.0,0.0,0.0,0.0,0.0,0.0
1752597938836,10.0,-3.75,9.0,0.0,0.0,9.81,1.0,0.0,0.0,0.0,0.0,0.0,0.0
1752597938961,9.38,-2.75,9.69,0.0,0.0,9.81,1.0,0.0,0.0,0.0,0.0,0.0,0.0
1752597939087,8.19,-2.19,10.81,0.0,0.0,9.81,1.0,0.0,0.0,0.0,0.0,0.0,0.0
1752597939205,8.31,-2.0,9.63,0.0,0.0,9.81,1.0,0.0,0.0,0.0,0.0,0.0,0.0
1752597939336,8.0,-1.88,8.5,0.0,0.0,9.81,1.0,0.0,0.0,0.0,0.0,0.0,0.0
1752597939458,7.44,-1.81,8.38,0.0,0.0,9.81,1.0,0.0,0.0,0.0,0.0,0.0,0.0
1752597939582,6.31,-1.75,11.94,0.0,0.0,9.81,1.0,0.0,0.0,0.0,0.0,0.0,0.0
1752597939703,5.63,-1.69,13.94,0.0,0.0,9.81,1.0,0.0,0.0,0.0,0.0,0.0,0.0
1752597940032,4.75,-1.63,16.19,0.0,0.0,9.81,1.0,0.0,0.0,0.0,0.0,0.0,0.0
1752597940162,4.5,-1.69,17.88,0.0,0.0,9.81,1.0,0.0,0.0,0.0,0.0,0.0,0.0
1752597940283,4.31,-1.69,19.56,0.0,0.0,9.81,1.0,0.0,0.0,0.0,0.0,0.0,0.0
1752597940405,3.75,-1.69,21.88,0.0,0.0,9.81,1.0,0.0,0.0,0.0,0.0,0.0,0.0
1752597940525,3.5,-1.81,22.94,0.0,0.0,9.81,1.0,0.0,0.0,0.0,0.0,0.0,0.0
1752597940656,3.44,-1.81,24.19,0.0,0.0,9.81,1.0,0.0,0.0,0.0,0.0,0.0,0.0
1752597940789,3.38,-1.75,25.75,0.0,0.0,9.81,1.0,0.0,0.0,0.0,0.0,0.0,0.0
1752597940910,3.13,-1.81,26.38,0.0,0.0,9.81,1.0,0.0,0.0,0.0,0.0,0.0,0.0
1752597941042,3.06,-1.81,26.75,0.0,0.0,9.81,1.0,0.0,0.0,0.0,0.0,0.0,0.0
1752597941163,3.13,-1.75,25.56,0.0,0.0,9.81,1.0,0.0,0.0,0.0,0.0,0.0,0.0
1752597941294,3.19,-1.75,24.5,0.0,0.0,9.81,1.0,0.0,0.0,0.0,0.0,0.0,0.0
1752597941416,3.25,-1.75,23.81,0.0,0.0,9.81,1.0,0.0,0.0,0.0,0.0,0.0,0.0
1752597941533,3.19,-1.75,24.06,0.0,0.0,9.81,1.0,0.0,0.0,0.0,0.0,0.0,0.0
1752597941665,3.19,-1.75,24.06,0.0,0.0,9.81,1.0,0.0,0.0,0.0,0.0,0.0,0.0
1752597941784,3.19,-1.75,23.63,0.0,0.0,9.81,1.0,0.0,0.0,0.0,0.0,0.0,0.0
1752597941903,3.25,-1.75,23.19,0.0,0.0,9.81,1.0,0.0,0.0,0.0,0.0,0.0,0.0
1752597942019,3.25,-1.75,22.63,0.0,0.0,9.81,1.0,0.0,0.0,0.0,0.0,0.0,0.0
1752597942143,3.25,-1.75,22.13,0.0,0.0,9.81,1.0,0.0,0.0,0.0,0.0,0.0,0.0
1752597942276,3.31,-1.75,21.63,0.0,0.0,9.81,1.0,0.0,0.0,0.0,0.0,0.0,0.0
1752597942399,3.38,-1.69,21.19,0.0,0.0,9.81,1.0,0.0,0.0,0.0,0.0,0.0,0.0
1752597942516,3.44,-1.69,20.63,0.0,0.0,9.81,1.0,0.0,0.0,0.0,0.0,0.0,0.0
1752597942647,3.44,-1.69,19.94,0.0,0.0,9.81,1.0,0.0,0.0,0.0,0.0,0.0,0.0
1752597942769,3.44,-1.63,19.13,0.0,0.0,9.81,1.0,0.0,0.0,0.0,0.0,0.0,0.0
1752597942888,3.5,-1.63,18.75,0.0,0.0,9.81,1.0,0.0,0.0,0.0,0.0,0.0,0.0
1752597943007,3.5,-1.56,18.0,0.0,0.0,9.81,1.0,0.0,0.0,0.0,0.0,0.0,0.0
1752597943139,3.56,-1.56,16.69,0.0,0.0,9.81,1.0,0.0,0.0,0.0,0.0,0.0,0.0
1752597943268,3.69,-1.5,15.5,0.0,0.0,9.81,1.0,0.0,0.0,0.0,0.0,0.0,0.0
1752597943397,3.88,-1.44,13.88,0.0,0.0,9.81,1.0,0.0,0.0,0.0,0.0,0.0,0.0
1752597943629,3.94,-1.38,12.75,0.0,0.0,9.81,1.0,0.0,0.0,0.0,0.0,0.0,0.0
1752597943759,3.94,-1.38,12.81,0.0,0.0,9.81,1.0,0.0,0.0,0.0,0.0,0.0,0.0
1752597943873,3.81,-1.44,15.25,0.0,0.0,9.81,1.0,0.0,0.0,0.0,0.0,0.0,0.0
1752597944004,3.38,-1.56,19.69,0.0,0.0,9.81,1.0,0.0,0.0,0.0,0.0,0.0,0.0
1752597944229,3.38,-1.5,20.69,0.0,0.0,9.81,1.0,0.0,0.0,0.0,0.0,0.0,0.0
1752597944360,3.38,-1.5,21.19,0.0,0.0,9.81,1.0,0.0,0.0,0.0,0.0,0.0,0.0
1752597944475,3.38,-1.5,21.0,0.0,0.0,9.81,1.0,0.0,0.0,0.0,0.0,0.0,0.0
1752597944605,3.63,-1.38,18.0,0.0,0.0,9.81,1.0,0.0,0.0,0.0,0.0,0.0,0.0
1752597944721,3.88,-1.31,14.88,0.0,0.0,9.81,1.0,0.0,0.0,0.0,0.0,0.0,0.0
1752597944839,4.0,-1.31,13.19,0.0,0.0,9.81,1.0,0.0,0.0,0.0,0.0,0.0,0.0
1752597944968,4.06,-1.25,12.25,0.0,0.0,9.81,1.0,0.0,0.0,0.0,0.0,0.0,0.0
1752597945183,4.38,-1.19,9.0,0.0,0.0,9.81,1.0,0.0,0.0,0.0,0.0,0.0,0.0
1752597945309,4.5,-1.19,7.25,0.0,0.0,9.81,1.0,0.0,0.0,0.0,0.0,0.0,0.0
1752597945433,4.56,-1.13,6.69,0.0,0.0,9.81,1.0,0.0,0.0,0.0,0.0,0.0,0.0
1752597945663,4.13,-1.19,12.56,0.0,0.0,9.81,1.0,0.0,0.0,0.0,0.0,0.0,0.0
1752597945808,4.0,-1.25,14.94,0.0,0.0,9.81,1.0,0.0,0.0,0.0,0.0,0.0,0.0
1752597946023,4.0,-1.19,17.56,0.0,0.0,9.81,1.0,0.0,0.0,0.0,0.0,0.0,0.0
1752597946156,4.0,-1.19,18.75,0.0,0.0,9.81,1.0,0.0,0.0,0.0,0.0,0.0,0.0
1752597946268,3.94,-1.19,19.81,0.0,0.0,9.81,1.0,0.0,0.0,0.0,0.0,0.0,0.0
1752597946494,4.25,-1.06,15.25,0.0,0.0,9.81,1.0,0.0,0.0,0.0,0.0,0.0,0.0
1752597946923,5.88,-0.75,3.88,0.0,0.0,9.81,1.0,0.0,0.0,0.0,0.0,0.0,0.0
1752597947055,5.88,-0.81,3.88,0.0,0.0,9.81,1.0,0.0,0.0,0.0,0.0,0.0,0.0
1752597947378,6.56,-3.88,3.81,0.0,0.0,9.81,1.0,0.0,0.0,0.0,0.0,0.0,0.0
1752597947499,6.0,-2.5,4.38,0.0,0.0,9.81,1.0,0.0,0.0,0.0,0.0,0.0,0.0
1752597947729,6.38,-0.69,5.5,0.0,0.0,9.81,1.0,0.0,0.0,0.0,0.0,0.0,0.0
1752597947956,7.75,1.63,5.44,0.0,0.0,9.81,1.0,0.0,0.0,0.0,0.0,0.0,0.0
1752597948069,8.63,3.38,3.75,0.0,0.0,9.81,1.0,0.0,0.0,0.0,0.0,0.0,0.0
1752597948193,11.19,3.69,3.5,0.0,0.0,9.81,1.0,0.0,0.0,0.0,0.0,0.0,0.0
1752597948320,13.5,2.63,3.31,0.0,0.0,9.81,1.0,0.0,0.0,0.0,0.0,0.0,0.0
1752597948445,16.88,2.0,2.19,0.0,0.0,9.81,1.0,0.0,0.0,0.0,0.0,0.0,0.0
1752597948671,24.0,1.63,2.06,0.0,0.0,9.81,1.0,0.0,0.0,0.0,0.0,0.0,0.0
1752597948788,26.88,2.69,2.13,0.0,0.0,9.81,1.0,0.0,0.0,0.0,0.0,0.0,0.0
1752597948906,29.44,5.13,2.44,0.0,0.0,9.81,1.0,0.0,0.0,0.0,0.0,0.0,0.0
1752597949026,31.81,7.13,2.31,0.0,0.0,9.81,1.0,0.0,0.0,0.0,0.0,0.0,0.0
