timestamp,heading,roll,pitch,acc_x,acc_y,acc_z,lin_acc_x,lin_acc_y,lin_acc_z,quat_w,quat_x,quat_y,quat_z,mag_x,mag_y,mag_z
1752860827098,8.0,-13.0,-106.0,-2.0,10.0,-3.0,0.3,0.4,-0.3,-0.63,-0.77,-0.11,0.03,0.0,0.0,0.0
1752860827098,7.0,-14.0,-108.0,-2.0,9.0,-3.0,0.3,-0.0,-0.3,-0.6,-0.79,-0.14,0.04,0.0,0.0,0.0
1752860827098,6.0,-14.0,-108.0,-2.0,9.0,-3.0,0.5,-0.0,-0.1,-0.59,-0.79,-0.15,0.03,0.0,0.0,0.0
1752860827098,6.0,-13.0,-108.0,-2.0,9.0,-3.0,0.6,0.0,-0.1,-0.59,-0.79,-0.16,0.03,0.0,0.0,0.0
1752860827098,6.0,-13.0,-109.0,-2.0,9.0,-3.0,0.0,0.3,0.5,-0.58,-0.8,-0.15,0.03,0.0,0.0,0.0
1752860827135,11.0,-15.0,-112.0,-3.0,9.0,-3.0,0.0,0.0,0.0,-0.56,-0.81,-0.15,0.05,0.0,0.0,0.0
1752860827283,19.0,-16.0,-113.0,-2.0,9.0,-3.0,0.3,0.4,0.5,-0.55,-0.82,-0.14,0.06,0.0,0.0,0.0
1752860827333,22.0,-16.0,-113.0,-2.0,9.0,-3.0,0.3,0.0,0.3,-0.55,-0.82,-0.1,0.1,0.0,0.0,0.0
1752860827367,25.0,-17.0,-113.0,-3.0,8.0,-4.0,0.0,-0.3,-0.0,-0.55,-0.82,-0.08,0.12,0.0,0.0,0.0
1752860827414,27.0,-17.0,-113.0,-3.0,8.0,-4.0,-0.1,-0.5,-0.4,-0.55,-0.82,-0.07,0.13,0.0,0.0,0.0
1752860854345,329.0,7.0,-34.0,6.0,5.0,-8.0,4.8,-0.2,-16.1,0.92,0.3,0.01,0.25,0.0,0.0,0.0
1752860854384,328.0,6.0,-31.0,6.0,6.0,-7.0,4.9,1.0,-14.9,0.93,0.28,0.02,0.26,0.0,0.0,0.0
1752860854525,326.0,6.0,-30.0,6.0,5.0,-5.0,5.2,-0.1,-13.6,0.92,0.27,0.03,0.27,0.0,0.0,0.0
1752860854574,326.0,7.0,-28.0,6.0,3.0,-5.0,4.4,-1.2,-13.9,0.93,0.25,0.01,0.29,0.0,0.0,0.0
1752860854614,325.0,7.0,-28.0,5.0,3.0,-6.0,4.4,-1.0,-14.6,0.92,0.25,0.01,0.29,0.0,0.0,0.0
1752860854651,325.0,8.0,-31.0,4.0,3.0,-4.0,2.5,-2.6,-13.7,0.92,0.27,0.01,0.29,0.0,0.0,0.0
1752860854700,323.0,9.0,-36.0,6.0,3.0,-7.0,3.5,-2.7,-13.9,0.9,0.31,0.01,0.3,0.0,0.0,0.0
1752860854844,326.0,7.0,-33.0,5.0,6.0,-5.0,4.3,0.7,-13.2,0.91,0.3,0.03,0.29,0.0,0.0,0.0
1752860854887,329.0,6.0,-24.0,5.0,7.0,-3.0,4.1,3.2,-11.6,0.94,0.23,0.01,0.27,0.0,0.0,0.0
1752860854932,332.0,5.0,-16.0,6.0,7.0,-2.0,5.2,4.7,-11.1,0.96,0.16,-0.01,0.25,0.0,0.0,0.0
1752860854976,334.0,5.0,-7.0,6.0,7.0,-1.0,5.5,6.4,-10.3,0.97,0.07,-0.03,0.22,0.0,0.0,0.0
1752860855123,336.0,5.0,4.0,7.0,6.0,1.0,7.1,6.9,-7.1,0.98,-0.01,-0.05,0.21,0.0,0.0,0.0
1752860855166,335.0,6.0,17.0,8.0,4.0,2.0,7.3,7.3,-7.1,0.96,-0.13,-0.08,0.21,0.0,0.0,0.0
1752860855203,335.0,6.0,19.0,8.0,4.0,2.0,7.5,7.4,-7.6,0.96,-0.15,-0.09,0.22,0.0,0.0,0.0
1752860855567,333.0,2.0,2.0,7.0,9.0,-0.0,6.3,8.7,-10.5,0.97,-0.01,-0.03,0.24,0.0,0.0,0.0
1752860855706,156.0,3.0,-10.0,3.0,6.0,-1.0,2.1,4.3,-11.0,-0.14,0.02,0.02,0.99,0.0,0.0,0.0
1752860855747,153.0,3.0,-13.0,4.0,4.0,-2.0,3.1,1.8,-11.6,-0.23,0.0,0.11,0.97,0.0,0.0,0.0
1752860855787,150.0,4.0,-16.0,5.0,4.0,-2.0,4.6,0.9,-11.9,-0.25,-0.0,0.13,0.96,0.0,0.0,0.0
1752860855942,147.0,7.0,-19.0,8.0,8.0,-8.0,15.3,-8.9,7.2,-0.27,-0.0,0.15,0.95,0.0,0.0,0.0
1752860856179,184.0,8.0,-36.0,6.0,9.0,-6.0,4.3,3.9,-13.6,0.03,0.08,0.3,0.95,0.0,0.0,0.0
1752860856229,175.0,9.0,-31.0,6.0,5.0,-1.0,3.9,0.6,-9.9,-0.02,0.07,0.27,0.96,0.0,0.0,0.0
1752860856274,167.0,11.0,-24.0,4.0,7.0,-3.0,1.5,2.9,-12.2,-0.09,0.07,0.22,0.97,0.0,0.0,0.0
1752860856648,202.0,17.0,-30.0,8.0,8.0,-6.0,5.1,2.8,-14.2,0.18,0.19,0.21,0.94,0.0,0.0,0.0
1752860856696,199.0,17.0,-30.0,3.0,7.0,-7.0,-0.7,1.9,-14.3,0.17,0.2,0.23,0.94,0.0,0.0,0.0
1752860856840,169.0,18.0,-12.0,4.0,3.0,-0.0,1.0,1.6,-9.6,0.09,0.19,0.21,0.95,0.0,0.0,0.0
1752860857090,164.0,17.0,-4.0,8.0,4.0,-7.0,6.1,0.7,-16.0,-0.13,0.14,0.07,0.98,0.0,0.0,0.0
1752860857132,158.0,10.0,-21.0,8.0,5.0,-6.0,6.2,1.7,-14.5,-0.18,0.06,0.2,0.96,0.0,0.0,0.0
1752860857178,158.0,10.0,-26.0,5.0,6.0,-6.0,2.8,0.8,-14.6,-0.19,0.05,0.22,0.96,0.0,0.0,0.0
1752860857221,156.0,10.0,-29.0,5.0,4.0,-7.0,3.3,-0.4,-15.2,-0.2,0.04,0.26,0.94,0.0,0.0,0.0
1752860857258,154.0,11.0,-30.0,4.0,5.0,-6.0,2.2,-0.6,-14.0,-0.21,0.04,0.27,0.94,0.0,0.0,0.0
1752860857303,154.0,13.0,-31.0,4.0,4.0,-7.0,1.8,-0.7,-14.8,-0.22,0.04,0.28,0.93,0.0,0.0,0.0
1752860857341,153.0,15.0,-32.0,5.0,4.0,-4.0,2.0,-1.0,-12.5,-0.22,0.07,0.29,0.93,0.0,0.0,0.0
1752860857388,152.0,16.0,-32.0,5.0,2.0,-4.0,2.8,-3.4,-12.0,-0.23,0.08,0.3,0.92,0.0,0.0,0.0
1752860857432,150.0,17.0,-33.0,4.0,2.0,-4.0,1.4,-2.9,-11.0,-0.24,0.08,0.3,0.92,0.0,0.0,0.0
1752860857473,149.0,18.0,-35.0,7.0,3.0,-4.0,4.2,-2.6,-11.8,-0.25,0.08,0.32,0.91,0.0,0.0,0.0
1752860857612,147.0,22.0,-40.0,11.0,7.0,-8.0,6.9,0.8,-14.6,-0.26,0.09,0.33,0.91,0.0,0.0,0.0
1752860857651,147.0,23.0,-38.0,9.0,6.0,-10.0,5.0,0.6,-16.0,-0.26,0.11,0.36,0.89,0.0,0.0,0.0
1752860857692,146.0,23.0,-34.0,7.0,8.0,-10.0,3.6,2.8,-17.6,-0.27,0.12,0.33,0.9,0.0,0.0,0.0
1752860857834,161.0,23.0,-17.0,16.0,-7.0,-9.0,0.0,0.0,0.0,-0.27,0.14,0.27,0.91,0.0,0.0,0.0
1752860857879,177.0,21.0,-30.0,-0.0,16.0,-8.0,-2.9,13.7,-17.8,-0.06,0.18,0.23,0.95,0.0,0.0,0.0
1752860857922,192.0,19.0,-47.0,2.0,23.0,-12.0,1.7,15.9,-18.6,0.1,0.21,0.36,0.9,0.0,0.0,0.0
1752860857975,197.0,18.0,-51.0,6.0,12.0,-10.0,2.5,4.7,-16.1,0.14,0.23,0.39,0.88,0.0,0.0,0.0
1752860858102,179.0,27.0,-28.0,-3.0,5.0,-9.0,-8.0,0.9,-16.0,0.11,0.23,0.36,0.9,0.0,0.0,0.0
1752860858143,176.0,29.0,-23.0,-3.0,4.0,-8.0,-7.8,0.7,-15.9,-0.03,0.25,0.2,0.95,0.0,0.0,0.0
1752860858285,179.0,33.0,-16.0,2.0,15.0,-8.0,-4.0,12.3,-16.0,-0.04,0.26,0.17,0.95,0.0,0.0,0.0
1752860858330,179.0,35.0,-19.0,8.0,16.0,-5.0,4.3,10.2,-12.1,-0.01,0.3,0.15,0.94,0.0,0.0,0.0
1752860858372,179.0,35.0,-16.0,14.0,-4.0,1.0,6.2,-3.1,-6.2,-0.01,0.3,0.12,0.95,0.0,0.0,0.0
1752860858414,185.0,35.0,-16.0,2.0,27.0,-8.0,-3.1,24.6,-15.4,0.04,0.31,0.11,0.94,0.0,0.0,0.0
1752860858454,193.0,35.0,-23.0,8.0,1.0,-2.0,2.2,-2.6,-9.3,0.09,0.32,0.14,0.93,0.0,0.0,0.0
1752860858494,201.0,36.0,-29.0,2.0,8.0,-8.0,-3.6,3.5,-14.9,0.15,0.34,0.14,0.92,0.0,0.0,0.0
1752860859204,175.0,35.0,-6.0,-1.0,8.0,-0.0,-6.3,7.3,-8.2,-0.17,0.36,0.07,0.91,0.0,0.0,0.0
1752860859245,175.0,34.0,-11.0,-2.0,1.0,-3.0,-7.0,-0.6,-11.4,-0.06,0.29,0.13,0.95,0.0,0.0,0.0
1752860859392,181.0,40.0,-26.0,1.0,9.0,-8.0,-5.9,6.4,-14.5,0.0,0.3,0.07,0.95,0.0,0.0,0.0
1752860859537,179.0,43.0,-27.0,4.0,12.0,-3.0,-3.1,10.3,-9.9,-0.01,0.37,0.19,0.91,0.0,0.0,0.0
1752860859577,166.0,46.0,-6.0,5.0,9.0,-4.0,-2.5,8.9,-11.1,-0.11,0.38,0.1,0.91,0.0,0.0,0.0
1752860859616,163.0,45.0,0.0,9.0,8.0,-7.0,2.0,8.4,-13.5,-0.13,0.38,0.06,0.91,0.0,0.0,0.0
1752860859656,162.0,44.0,4.0,10.0,2.0,-8.0,3.5,2.9,-14.7,-0.15,0.38,0.04,0.91,0.0,0.0,0.0
1752860859696,164.0,44.0,1.0,9.0,0.0,-8.0,2.5,0.5,-15.0,-0.13,0.37,0.04,0.92,0.0,0.0,0.0
1752860859742,171.0,41.0,-7.0,4.0,-5.0,-12.0,-8.7,6.0,-19.6,-0.09,0.36,0.07,0.93,0.0,0.0,0.0
1752860860040,183.0,47.0,-33.0,2.0,9.0,-9.0,-5.4,5.4,-14.7,0.02,0.42,0.2,0.89,0.0,0.0,0.0
1752860860041,175.0,52.0,-26.0,2.0,8.0,-7.0,-6.1,6.8,-11.6,-0.03,0.44,0.18,0.88,0.0,0.0,0.0
1752860860082,167.0,58.0,-14.0,3.0,10.0,-6.0,-5.5,10.0,-10.6,-0.09,0.47,0.14,0.87,0.0,0.0,0.0
1752860860232,149.0,65.0,25.0,8.0,9.0,-8.0,-0.5,7.9,-11.7,-0.22,0.56,0.04,0.8,0.0,0.0,0.0
1752860860266,151.0,64.0,21.0,6.0,2.0,-12.0,-2.4,3.5,-16.3,-0.22,0.55,0.04,0.8,0.0,0.0,0.0
1752860860406,175.0,55.0,-14.0,-0.0,0.0,-8.0,-8.4,-1.2,-13.7,-0.17,0.51,0.06,0.84,0.0,0.0,0.0
1752860860456,177.0,57.0,-19.0,-1.0,-1.0,-9.0,-9.3,-3.0,-14.3,-0.02,0.48,0.11,0.87,0.0,0.0,0.0
1752860860590,175.0,64.0,-36.0,-0.0,9.0,-7.0,-9.3,6.5,-10.5,-0.01,0.5,0.13,0.86,0.0,0.0,0.0
1752860861575,171.0,61.0,-19.0,-1.0,1.0,-7.0,-9.2,-0.1,-11.7,-0.06,0.51,0.12,0.85,0.0,0.0,0.0
1752860861618,175.0,61.0,-22.0,-1.0,0.0,-8.0,-9.6,-1.4,-12.0,-0.04,0.51,0.13,0.85,0.0,0.0,0.0
1752860861751,174.0,62.0,-35.0,2.0,10.0,-7.0,-6.7,7.2,-11.3,-0.04,0.52,0.15,0.84,0.0,0.0,0.0
1752860862097,168.0,47.0,-10.0,2.0,1.0,-6.0,-4.3,0.1,-12.8,-0.06,0.51,0.19,0.83,0.0,0.0,0.0
1752860862142,188.0,42.0,-26.0,1.0,5.0,-8.0,-5.7,1.1,-14.0,0.06,0.38,0.15,0.91,0.0,0.0,0.0
1752860862286,193.0,37.0,-24.0,-0.0,7.0,-3.0,-6.1,4.4,-9.3,0.09,0.39,0.17,0.9,0.0,0.0,0.0
1752860862331,190.0,33.0,-20.0,-0.0,6.0,-2.0,-5.0,2.9,-9.9,0.08,0.3,0.12,0.94,0.0,0.0,0.0
1752860862371,188.0,27.0,-12.0,0.0,5.0,-3.0,-3.9,3.2,-11.3,0.07,0.25,0.09,0.96,0.0,0.0,0.0
1752860862411,186.0,22.0,-7.0,4.0,1.0,1.0,1.0,0.5,-8.2,0.06,0.2,0.06,0.98,0.0,0.0,0.0
1752860862463,188.0,17.0,-3.0,-6.0,1.0,13.0,-8.5,0.9,3.8,0.06,0.16,0.02,0.99,0.0,0.0,0.0
1752860862701,203.0,7.0,-2.0,-1.0,13.0,-3.0,-1.8,13.0,-12.9,0.1,0.08,0.01,0.99,0.0,0.0,0.0
1752860862751,201.0,6.0,-1.0,-1.0,14.0,-2.0,-1.6,14.1,-11.6,0.19,0.06,0.0,0.98,0.0,0.0,0.0
1752860862785,199.0,4.0,-1.0,2.0,14.0,-2.0,2.0,11.5,-11.8,0.16,0.04,0.0,0.99,0.0,0.0,0.0
1752860862832,197.0,1.0,2.0,3.0,8.0,-1.0,2.8,8.2,-10.7,0.15,0.01,-0.01,0.99,0.0,0.0,0.0
1752860862868,197.0,-2.0,4.0,3.0,5.0,0.0,3.9,5.4,-9.5,0.14,-0.02,-0.03,0.99,0.0,0.0,0.0
1752860862902,198.0,-5.0,5.0,2.0,2.0,1.0,2.8,3.1,-8.2,0.15,-0.04,-0.03,0.99,0.0,0.0,0.0
1752860863152,206.0,-11.0,0.0,-3.0,10.0,1.0,-0.6,10.1,-10.1,0.18,-0.06,-0.02,0.98,0.0,0.0,0.0
1752860863202,207.0,-11.0,-2.0,-0.0,10.0,-3.0,1.5,9.8,-12.3,0.23,-0.09,0.04,0.97,0.0,0.0,0.0
1752860863247,209.0,-11.0,-1.0,1.0,9.0,-1.0,3.4,8.8,-10.9,0.24,-0.09,0.04,0.97,0.0,0.0,0.0
1752860863285,210.0,-11.0,-1.0,3.0,10.0,-1.0,5.0,10.0,-10.9,0.26,-0.09,0.04,0.96,0.0,0.0,0.0
1752860863326,211.0,-12.0,-2.0,6.0,25.0,-6.0,7.9,25.0,-15.8,0.27,-0.1,0.04,0.96,0.0,0.0,0.0
1752860863466,207.0,-14.0,2.0,2.0,8.0,-1.0,4.2,8.1,-10.6,0.26,-0.1,0.05,0.96,0.0,0.0,0.0
1752860863503,207.0,-14.0,0.0,1.0,9.0,-1.0,3.2,8.6,-11.0,0.23,-0.12,0.02,0.97,0.0,0.0,0.0
1752860863554,207.0,-14.0,-1.0,-0.0,9.0,-1.0,1.9,9.3,-10.4,0.23,-0.12,0.03,0.97,0.0,0.0,0.0
1752860863595,207.0,-14.0,-1.0,0.0,7.0,1.0,2.8,6.8,-8.3,0.23,-0.12,0.03,0.97,0.0,0.0,0.0
1752860863645,204.0,-15.0,-0.0,0.0,7.0,-1.0,2.7,6.7,-9.8,0.21,-0.12,0.03,0.97,0.0,0.0,0.0
1752860863784,204.0,-13.0,-1.0,-2.0,10.0,-1.0,-0.4,9.2,-10.1,0.21,-0.11,0.03,0.97,0.0,0.0,0.0
1752860863821,204.0,-12.0,-0.0,-1.0,8.0,-1.0,0.8,11.2,-11.5,0.21,-0.1,0.03,0.97,0.0,0.0,0.0
1752860863871,204.0,-11.0,-1.0,-1.0,9.0,-2.0,1.0,8.3,-11.4,0.21,-0.09,0.03,0.97,0.0,0.0,0.0
1752860863904,204.0,-10.0,-2.0,-1.0,10.0,-2.0,1.0,9.8,-11.6,0.21,-0.08,0.04,0.97,0.0,0.0,0.0
1752860863955,205.0,-8.0,-3.0,-0.0,9.0,-2.0,1.5,8.8,-12.1,0.21,-0.07,0.04,0.97,0.0,0.0,0.0
1752860864007,206.0,-7.0,-4.0,1.0,9.0,-2.0,2.2,8.5,-12.2,0.22,-0.05,0.05,0.97,0.0,0.0,0.0
1752860864057,206.0,-5.0,-6.0,2.0,8.0,-2.0,2.5,8.5,-12.0,0.22,-0.04,0.06,0.97,0.0,0.0,0.0
1752860864648,212.0,-8.0,-15.0,-15.0,27.0,5.0,-13.4,24.6,-4.8,0.27,-0.03,0.15,0.95,0.0,0.0,0.0
1752860864691,212.0,-9.0,-22.0,1.0,9.0,-5.0,1.7,4.0,-12.4,0.27,-0.03,0.19,0.94,0.0,0.0,0.0
1752860864739,210.0,-9.0,-19.0,-2.0,4.0,-0.0,-0.7,0.8,-10.3,0.25,-0.03,0.18,0.95,0.0,0.0,0.0
1752860864778,208.0,-7.0,-19.0,-1.0,7.0,-4.0,0.3,5.4,-13.4,0.24,-0.02,0.17,0.95,0.0,0.0,0.0
1752860864825,206.0,-6.0,-20.0,-1.0,9.0,-4.0,-0.5,5.5,-13.3,0.23,-0.01,0.18,0.96,0.0,0.0,0.0
1752860864861,204.0,-5.0,-20.0,-1.0,9.0,-4.0,-0.0,5.3,-12.9,0.21,-0.0,0.18,0.96,0.0,0.0,0.0
1752860864995,200.0,-2.0,-19.0,-1.0,8.0,-4.0,-0.1,5.1,-13.1,0.2,0.0,0.18,0.96,0.0,0.0,0.0
1752860865042,199.0,-2.0,-18.0,-1.0,8.0,-4.0,-0.5,5.0,-13.3,0.16,0.01,0.16,0.97,0.0,0.0,0.0
1752860865079,199.0,-2.0,-18.0,-1.0,8.0,-4.0,-1.2,4.7,-13.5,0.16,0.01,0.15,0.98,0.0,0.0,0.0
1752860865126,198.0,-2.0,-19.0,-2.0,9.0,-5.0,-1.4,5.5,-14.1,0.16,0.01,0.16,0.97,0.0,0.0,0.0
1752860865162,197.0,-2.0,-21.0,-1.0,9.0,-5.0,-0.7,5.5,-14.1,0.15,0.01,0.18,0.97,0.0,0.0,0.0
1752860865303,191.0,-0.0,-27.0,1.0,6.0,-5.0,2.8,2.0,-13.6,0.14,0.01,0.19,0.97,0.0,0.0,0.0
1752860865346,188.0,1.0,-29.0,5.0,8.0,-5.0,4.5,3.0,-13.9,0.07,0.02,0.25,0.97,0.0,0.0,0.0
1752860865392,186.0,2.0,-30.0,2.0,8.0,-6.0,2.9,2.9,-14.0,0.05,0.03,0.26,0.96,0.0,0.0,0.0
1752860865429,183.0,3.0,-33.0,3.0,8.0,-7.0,2.9,2.3,-14.7,0.03,0.03,0.28,0.96,0.0,0.0,0.0
1752860865470,181.0,4.0,-36.0,3.0,8.0,-9.0,2.3,2.3,-16.6,0.01,0.04,0.3,0.95,0.0,0.0,0.0
1752860865510,180.0,5.0,-38.0,6.0,6.0,-9.0,5.3,0.2,-16.1,0.0,0.05,0.32,0.95,0.0,0.0,0.0
1752860865663,178.0,11.0,-53.0,4.0,6.0,-7.0,0.5,-3.1,-12.4,0.0,0.07,0.34,0.94,0.0,0.0,0.0
1752860865710,177.0,12.0,-58.0,1.0,5.0,-6.0,-0.7,-2.9,-10.8,-0.02,0.1,0.48,0.87,0.0,0.0,0.0
1752860865748,177.0,12.0,-60.0,3.0,5.0,-8.0,1.0,-3.8,-12.3,-0.02,0.11,0.49,0.86,0.0,0.0,0.0
1752860865798,177.0,13.0,-61.0,3.0,4.0,-8.0,1.2,-4.3,-13.1,-0.02,0.12,0.5,0.86,0.0,0.0,0.0
1752860865848,176.0,15.0,-60.0,4.0,4.0,-9.0,0.5,-4.4,-13.3,-0.03,0.13,0.49,0.86,0.0,0.0,0.0
1752860865881,176.0,17.0,-60.0,3.0,4.0,-9.0,-0.1,-4.2,-13.4,-0.03,0.15,0.49,0.86,0.0,0.0,0.0
1752860865916,176.0,19.0,-58.0,2.0,3.0,-8.0,-1.0,-4.6,-12.8,-0.03,0.17,0.47,0.86,0.0,0.0,0.0
1752860865965,177.0,22.0,-56.0,2.0,3.0,-8.0,-2.1,-4.4,-13.1,-0.02,0.19,0.46,0.87,0.0,0.0,0.0
1752860866005,181.0,24.0,-53.0,1.0,4.0,-8.0,-3.6,-3.1,-13.8,-0.0,0.23,0.43,0.88,0.0,0.0,0.0
1752860866058,185.0,26.0,-50.0,-1.0,5.0,-10.0,-5.8,-1.8,-15.3,0.04,0.27,0.38,0.89,0.0,0.0,0.0
1752860866102,191.0,28.0,-49.0,-3.0,6.0,-10.0,-7.8,-0.3,-15.8,0.09,0.3,0.35,0.88,0.0,0.0,0.0
1752860866246,187.0,31.0,-50.0,1.0,5.0,-6.0,-3.7,-1.0,-10.6,0.12,0.28,0.32,0.9,0.0,0.0,0.0
1752860866291,186.0,30.0,-45.0,1.0,6.0,-4.0,-3.6,0.3,-10.0,0.05,0.3,0.33,0.9,0.0,0.0,0.0
1752860866337,188.0,29.0,-37.0,2.0,7.0,-5.0,-3.2,1.5,-12.1,0.06,0.28,0.28,0.92,0.0,0.0,0.0
1752860866475,192.0,27.0,-28.0,0.0,8.0,-5.0,-4.4,3.9,-12.3,0.07,0.28,0.25,0.93,0.0,0.0,0.0
1752860866526,193.0,27.0,-27.0,-0.0,8.0,-5.0,-0.1,-0.2,0.0,0.1,0.26,0.19,0.94,0.0,0.0,0.0
1752860866667,233.0,-1.0,-116.0,-1.0,9.0,-4.0,-0.3,-0.1,0.4,0.21,0.34,0.8,0.45,0.0,0.0,0.0
1752860866714,237.0,-1.0,-115.0,-1.0,8.0,-4.0,-0.8,-1.1,-0.0,0.25,0.38,0.75,0.47,0.0,0.0,0.0
1752860866851,239.0,1.0,-109.0,-1.0,10.0,-3.0,-1.2,0.6,-0.2,0.28,0.41,0.71,0.51,0.0,0.0,0.0
1752860866905,242.0,2.0,-107.0,-1.0,9.0,-4.0,-1.3,-1.4,-1.4,0.31,0.43,0.68,0.51,0.0,0.0,0.0
1752860866952,247.0,2.0,-105.0,-0.0,6.0,-2.0,-0.3,-3.2,0.7,0.33,0.46,0.65,0.51,0.0,0.0,0.0
1752860866988,255.0,-1.0,-104.0,-0.0,6.0,-3.0,0.0,-3.4,-0.7,0.37,0.47,0.63,0.49,0.0,0.0,0.0
1752860867021,263.0,-6.0,-105.0,2.0,-5.0,-1.0,3.1,-14.5,2.1,0.4,0.47,0.64,0.46,0.0,0.0,0.0
1752860867069,264.0,-5.0,-107.0,1.0,7.0,-1.0,1.6,-2.8,1.4,0.4,0.48,0.65,0.44,0.0,0.0,0.0
1752860867203,265.0,-6.0,-107.0,-1.0,13.0,-1.0,-0.4,3.4,1.4,0.41,0.46,0.64,0.45,0.0,0.0,0.0
1752860867246,261.0,-3.0,-106.0,-1.0,12.0,-0.0,-0.7,2.0,2.2,0.39,0.49,0.64,0.45,0.0,0.0,0.0
1752860867496,256.0,-1.0,-99.0,-1.0,7.0,-4.0,0.8,-1.2,-9.2,0.4,0.46,0.6,0.51,0.0,0.0,0.0
1752860867531,257.0,-3.0,-97.0,1.0,15.0,0.0,2.1,3.3,-0.3,0.41,0.44,0.61,0.52,0.0,0.0,0.0
1752860867572,254.0,-1.0,-98.0,-0.0,5.0,-2.0,0.1,-4.9,-0.3,0.4,0.44,0.61,0.53,0.0,0.0,0.0
1752860867613,255.0,-2.0,-100.0,-0.0,9.0,-1.0,0.1,-0.7,0.4,0.39,0.44,0.62,0.52,0.0,0.0,0.0
1752860867756,251.0,2.0,-104.0,0.0,13.0,-2.0,-0.1,3.1,0.1,0.38,0.46,0.63,0.5,0.0,0.0,0.0
1752860867907,262.0,2.0,-96.0,2.0,6.0,-2.0,1.1,-2.9,-1.4,0.37,0.5,0.59,0.51,0.0,0.0,0.0
1752860867967,271.0,-4.0,-96.0,-0.0,7.0,-2.0,-2.8,11.7,-3.8,0.47,0.5,0.55,0.47,0.0,0.0,0.0
1752860869076,276.0,1.0,-103.0,2.0,9.0,-1.0,1.5,-0.3,1.6,0.46,0.59,0.52,0.42,0.0,0.0,0.0
1752860869123,274.0,3.0,-107.0,1.0,12.0,-2.0,0.3,2.8,0.5,0.44,0.6,0.52,0.41,0.0,0.0,0.0
1752860869160,273.0,4.0,-106.0,-0.0,11.0,-1.0,-0.9,1.6,1.5,0.43,0.62,0.51,0.41,0.0,0.0,0.0
1752860869206,271.0,6.0,-103.0,-1.0,11.0,0.0,-1.8,1.6,1.9,0.44,0.61,0.49,0.43,0.0,0.0,0.0
1752860869260,270.0,8.0,-102.0,0.0,11.0,-1.0,-1.6,1.3,-0.3,0.44,0.62,0.47,0.45,0.0,0.0,0.0
1752860869289,269.0,10.0,-99.0,-0.0,10.0,-2.0,-2.0,0.8,-0.2,0.45,0.62,0.45,0.46,0.0,0.0,0.0
1752860869327,269.0,10.0,-97.0,1.0,11.0,-1.0,-0.7,1.7,-0.2,0.47,0.61,0.44,0.47,0.0,0.0,0.0
1752860869377,269.0,9.0,-96.0,2.0,11.0,-3.0,0.5,1.6,-1.6,0.46,0.6,0.44,0.48,0.0,0.0,0.0
1752860869417,270.0,7.0,-95.0,2.0,9.0,-2.0,0.2,-2.3,-0.7,0.47,0.59,0.45,0.48,0.0,0.0,0.0
1752860869460,272.0,5.0,-95.0,1.0,5.0,-1.0,0.2,-4.6,-0.4,0.49,0.57,0.47,0.47,0.0,0.0,0.0
1752860869610,276.0,1.0,-100.0,1.0,7.0,-0.0,1.2,-1.4,1.4,0.49,0.57,0.49,0.45,0.0,0.0,0.0
1752860869660,276.0,2.0,-103.0,0.0,12.0,-1.0,-0.6,2.9,0.8,0.47,0.6,0.5,0.42,0.0,0.0,0.0
1752860869694,276.0,3.0,-103.0,-1.0,12.0,-2.0,-1.1,2.2,-0.1,0.46,0.61,0.49,0.41,0.0,0.0,0.0
1752860869727,275.0,5.0,-101.0,-0.0,12.0,-1.0,-1.1,2.0,0.9,0.47,0.61,0.48,0.42,0.0,0.0,0.0
1752860869774,273.0,7.0,-99.0,-1.0,9.0,-1.0,-2.1,-0.1,0.6,0.47,0.61,0.46,0.44,0.0,0.0,0.0
1752860869818,271.0,8.0,-97.0,-0.0,9.0,-1.0,-1.1,0.1,0.5,0.47,0.6,0.45,0.46,0.0,0.0,0.0
1752860869861,271.0,7.0,-96.0,1.0,9.0,0.0,-0.5,-1.0,1.1,0.48,0.59,0.44,0.47,0.0,0.0,0.0
1752860870012,290.0,-7.0,-96.0,4.0,2.0,-3.0,-0.6,-0.9,0.6,0.49,0.58,0.45,0.46,0.0,0.0,0.0
1752860870053,288.0,-6.0,-94.0,1.0,5.0,0.0,2.5,-2.9,1.3,0.55,0.55,0.49,0.4,0.0,0.0,0.0
1752860870096,288.0,-4.0,-93.0,2.0,8.0,-0.0,2.6,-1.8,0.5,0.56,0.55,0.47,0.41,0.0,0.0,0.0
1752860870129,287.0,-2.0,-96.0,3.0,11.0,-2.0,3.0,1.0,-0.4,0.54,0.58,0.47,0.4,0.0,0.0,0.0
1752860870170,286.0,1.0,-97.0,3.0,12.0,-1.0,2.8,1.8,-0.0,0.53,0.6,0.45,0.4,0.0,0.0,0.0
1752860870220,284.0,3.0,-96.0,4.0,12.0,-2.0,3.2,2.5,-2.0,0.53,0.61,0.43,0.41,0.0,0.0,0.0
1752860870275,282.0,7.0,-96.0,5.0,11.0,-3.0,3.4,1.7,-2.3,0.52,0.63,0.4,0.42,0.0,0.0,0.0
1752860870310,278.0,11.0,-95.0,4.0,10.0,-2.0,2.1,0.5,-1.6,0.51,0.64,0.38,0.44,0.0,0.0,0.0
1752860870356,275.0,13.0,-94.0,1.0,7.0,-1.0,-1.3,-2.1,-0.9,0.5,0.64,0.36,0.46,0.0,0.0,0.0
1752860870400,276.0,12.0,-92.0,0.0,10.0,-1.0,-1.9,0.8,-0.4,0.52,0.62,0.36,0.47,0.0,0.0,0.0
1752860870441,278.0,9.0,-93.0,-1.0,8.0,-1.0,-2.8,-1.5,0.1,0.52,0.62,0.38,0.46,0.0,0.0,0.0
1752860870479,281.0,6.0,-95.0,-1.0,5.0,-0.0,-2.4,-4.4,0.0,0.52,0.62,0.4,0.44,0.0,0.0,0.0
1752860870519,284.0,3.0,-97.0,1.0,0.0,3.0,0.8,-9.7,4.2,0.52,0.62,0.42,0.41,0.0,0.0,0.0
1752860870663,283.0,9.0,-101.0,2.0,9.0,-3.0,0.4,-0.4,-0.7,0.51,0.63,0.42,0.4,0.0,0.0,0.0
1752860870709,285.0,10.0,-100.0,2.0,10.0,-1.0,0.4,0.7,1.2,0.5,0.68,0.36,0.39,0.0,0.0,0.0
1752860870766,286.0,10.0,-99.0,2.0,11.0,-1.0,0.8,2.2,0.7,0.52,0.68,0.34,0.39,0.0,0.0,0.0
1752860870788,285.0,12.0,-101.0,4.0,14.0,-4.0,1.5,4.6,-2.0,0.51,0.69,0.33,0.39,0.0,0.0,0.0
1752860870835,284.0,14.0,-101.0,4.0,12.0,-5.0,1.8,2.2,-2.8,0.5,0.7,0.32,0.39,0.0,0.0,0.0
1752860870891,284.0,15.0,-99.0,5.0,8.0,-4.0,2.2,-1.7,-2.2,0.51,0.7,0.3,0.4,0.0,0.0,0.0
1752860870925,283.0,15.0,-97.0,4.0,6.0,-3.0,2.0,-3.9,-1.6,0.52,0.69,0.3,0.41,0.0,0.0,0.0
1752860871163,291.0,4.0,-103.0,-0.0,9.0,-2.0,-1.2,-0.9,0.2,0.52,0.68,0.31,0.41,0.0,0.0,0.0
1752860871213,290.0,6.0,-105.0,-1.0,11.0,-2.0,-2.2,2.5,1.3,0.5,0.69,0.38,0.35,0.0,0.0,0.0
1752860871259,288.0,7.0,-105.0,-0.0,15.0,1.0,-1.5,5.1,3.1,0.49,0.7,0.38,0.36,0.0,0.0,0.0
1752860871294,286.0,9.0,-103.0,2.0,17.0,0.0,0.6,7.5,2.6,0.5,0.69,0.37,0.37,0.0,0.0,0.0
1752860871430,281.0,11.0,-96.0,3.0,11.0,-1.0,0.9,0.9,0.3,0.5,0.69,0.36,0.38,0.0,0.0,0.0
1752860871480,279.0,10.0,-98.0,2.0,8.0,-1.0,0.5,-2.5,-0.0,0.5,0.65,0.38,0.43,0.0,0.0,0.0
1752860871630,291.0,-2.0,-93.0,1.0,3.0,-1.0,1.7,-7.3,-1.1,0.56,0.58,0.44,0.39,0.0,0.0,0.0
1752860871778,286.0,2.0,-98.0,2.0,9.0,-1.0,0.5,-0.6,0.4,0.58,0.57,0.43,0.4,0.0,0.0,0.0
1752860871814,284.0,5.0,-100.0,-3.0,11.0,-3.0,-4.1,1.4,-1.0,0.51,0.64,0.42,0.4,0.0,0.0,0.0
1752860871961,276.0,15.0,-103.0,5.0,14.0,-3.0,2.5,3.6,-0.1,0.49,0.65,0.41,0.41,0.0,0.0,0.0
1752860872108,291.0,7.0,-103.0,3.0,6.0,-0.0,2.2,-4.5,1.8,0.51,0.69,0.36,0.36,0.0,0.0,0.0
1752860872141,298.0,1.0,-103.0,2.0,4.0,-1.0,4.8,-3.8,0.4,0.53,0.68,0.39,0.32,0.0,0.0,0.0
1752860872188,300.0,-1.0,-104.0,6.0,4.0,-3.0,6.4,-5.7,-0.7,0.52,0.68,0.41,0.31,0.0,0.0,0.0
1752860872920,298.0,-8.0,-98.0,1.0,12.0,-2.0,2.6,2.4,-0.9,0.56,0.58,0.48,0.34,0.0,0.0,0.0
1752860872966,295.0,-6.0,-98.0,1.0,14.0,1.0,2.5,4.4,2.9,0.56,0.58,0.48,0.35,0.0,0.0,0.0
1752860873015,291.0,-4.0,-97.0,1.0,13.0,-2.0,1.3,1.9,-2.9,0.55,0.58,0.46,0.38,0.0,0.0,0.0
1752860873246,261.0,11.0,-84.0,-1.0,11.0,1.0,-2.7,1.1,1.6,0.54,0.58,0.45,0.41,0.0,0.0,0.0
1752860873299,259.0,12.0,-84.0,0.0,5.0,3.0,-1.7,-4.4,2.2,0.47,0.52,0.42,0.57,0.0,0.0,0.0
1752860873330,260.0,10.0,-85.0,1.0,3.0,1.0,-0.8,-6.3,0.4,0.48,0.52,0.43,0.57,0.0,0.0,0.0
1752860873474,265.0,7.0,-90.0,1.0,1.0,2.0,-0.5,-8.8,2.0,0.47,0.53,0.45,0.54,0.0,0.0,0.0
1752860873517,262.0,10.0,-92.0,3.0,8.0,-1.0,1.0,-1.8,-0.3,0.46,0.56,0.45,0.52,0.0,0.0,0.0
1752860873567,262.0,12.0,-94.0,2.0,9.0,-2.0,-0.8,-1.0,-2.0,0.45,0.58,0.44,0.52,0.0,0.0,0.0
1752860873614,264.0,12.0,-93.0,1.0,10.0,-1.0,-0.6,1.4,0.1,0.46,0.59,0.43,0.51,0.0,0.0,0.0
1752860873751,262.0,11.0,-90.0,4.0,14.0,-0.0,1.8,4.0,-0.6,0.48,0.58,0.42,0.51,0.0,0.0,0.0
1752860873785,259.0,11.0,-87.0,3.0,7.0,-0.0,1.5,-2.3,-0.6,0.46,0.54,0.43,0.55,0.0,0.0,0.0
1752860873834,259.0,9.0,-84.0,3.0,5.0,-0.0,1.2,-4.8,-1.5,0.47,0.51,0.44,0.57,0.0,0.0,0.0
1752860873884,263.0,4.0,-82.0,1.0,4.0,-0.0,0.5,-5.4,-1.4,0.49,0.47,0.45,0.57,0.0,0.0,0.0
1752860874054,267.0,-1.0,-85.0,-0.0,7.0,-1.0,1.0,-1.4,1.5,0.51,0.46,0.49,0.55,0.0,0.0,0.0
1752860874073,268.0,-0.0,-90.0,-0.0,11.0,-0.0,-0.4,1.2,0.1,0.49,0.49,0.51,0.51,0.0,0.0,0.0
1752860874217,271.0,9.0,-102.0,-4.0,8.0,-5.0,-5.3,-0.8,-1.9,0.48,0.53,0.5,0.49,0.0,0.0,0.0
1752860874259,277.0,8.0,-103.0,-1.0,10.0,-4.0,-2.1,2.2,-1.5,0.47,0.66,0.43,0.41,0.0,0.0,0.0
1752860874308,283.0,8.0,-108.0,1.0,14.0,-3.0,0.1,5.5,0.9,0.46,0.7,0.41,0.37,0.0,0.0,0.0
1752860874338,290.0,7.0,-112.0,4.0,16.0,-3.0,2.8,6.5,0.2,0.46,0.73,0.39,0.33,0.0,0.0,0.0
1752860874379,293.0,8.0,-116.0,3.0,11.0,-4.0,1.5,2.3,0.6,0.45,0.76,0.36,0.3,0.0,0.0,0.0
1752860874531,298.0,8.0,-117.0,6.0,6.0,-4.0,0.3,-7.1,3.9,0.44,0.79,0.33,0.27,0.0,0.0,0.0
1752860874582,319.0,-6.0,-110.0,-3.0,6.0,5.0,-1.8,-3.1,7.8,0.54,0.73,0.36,0.2,0.0,0.0,0.0
1752860874729,311.0,-4.0,-108.0,-6.0,11.0,-1.0,-5.8,1.9,2.1,0.53,0.73,0.39,0.19,0.0,0.0,0.0
1752860874758,305.0,-2.0,-101.0,-5.0,11.0,-0.0,-3.3,1.1,1.0,0.57,0.67,0.38,0.29,0.0,0.0,0.0
1752860874800,299.0,1.0,-98.0,-1.0,11.0,0.0,-0.7,2.1,0.4,0.56,0.66,0.37,0.33,0.0,0.0,0.0
1752860874943,291.0,-1.0,-90.0,5.0,8.0,-4.0,5.4,-1.4,-4.2,0.57,0.63,0.37,0.37,0.0,0.0,0.0
1752860874980,294.0,-4.0,-88.0,4.0,5.0,-2.0,4.5,-5.1,-2.0,0.6,0.56,0.41,0.4,0.0,0.0,0.0
1752860875122,294.0,-7.0,-80.0,1.0,3.0,2.0,1.8,-6.9,0.2,0.61,0.54,0.43,0.38,0.0,0.0,0.0
1752860875167,295.0,-6.0,-80.0,-2.0,7.0,3.0,-1.6,-0.4,-2.0,0.65,0.5,0.4,0.41,0.0,0.0,0.0
1752860875212,294.0,-4.0,-83.0,-1.0,14.0,1.0,-0.5,4.8,0.5,0.63,0.53,0.4,0.41,0.0,0.0,0.0
1752860875256,292.0,-1.0,-86.0,-6.0,13.0,-2.0,-5.7,3.4,-2.3,0.61,0.55,0.39,0.41,0.0,0.0,0.0
1752860875299,290.0,2.0,-84.0,-5.0,9.0,0.0,-5.5,-0.8,-1.0,0.61,0.56,0.37,0.42,0.0,0.0,0.0
1752860875537,300.0,-3.0,-92.0,3.0,2.0,0.0,4.9,-7.3,0.6,0.61,0.57,0.34,0.43,0.0,0.0,0.0
1752860875578,316.0,-11.0,-94.0,3.0,8.0,-2.0,6.0,0.4,-1.1,0.64,0.61,0.4,0.26,0.0,0.0,0.0
1752860875632,318.0,-10.0,-98.0,2.0,12.0,-2.0,3.9,2.3,-0.3,0.61,0.65,0.39,0.23,0.0,0.0,0.0
1752860875673,316.0,-8.0,-98.0,-2.0,11.0,-2.0,-1.8,1.3,-0.2,0.61,0.65,0.38,0.24,0.0,0.0,0.0
1752860875715,311.0,-4.0,-99.0,-6.0,9.0,0.0,-6.5,-1.0,1.7,0.59,0.67,0.36,0.27,0.0,0.0,0.0
1752860875755,305.0,1.0,-98.0,-9.0,7.0,-0.0,-9.3,-2.3,0.3,0.58,0.68,0.33,0.3,0.0,0.0,0.0
1752860875796,303.0,5.0,-96.0,-3.0,7.0,-5.0,-4.1,-2.6,-3.8,0.59,0.68,0.3,0.32,0.0,0.0,0.0
1752860875839,305.0,6.0,-98.0,3.0,4.0,-3.0,1.8,-6.0,-1.9,0.58,0.7,0.28,0.31,0.0,0.0,0.0
1752860875977,324.0,-8.0,-106.0,2.0,14.0,2.0,9.4,-4.0,-0.0,0.59,0.7,0.29,0.28,0.0,0.0,0.0
1752860876026,322.0,-8.0,-103.0,4.0,8.0,-2.0,5.3,-1.1,-0.4,0.59,0.7,0.35,0.2,0.0,0.0,0.0
1752860876179,308.0,3.0,-93.0,1.0,11.0,-1.0,0.2,1.5,-1.1,0.6,0.69,0.33,0.21,0.0,0.0,0.0
1752860876303,277.0,18.0,-78.0,-2.0,12.0,3.0,-5.6,2.8,1.0,0.62,0.66,0.26,0.34,0.0,0.0,0.0
1752860876345,268.0,20.0,-74.0,-1.0,6.0,4.0,-4.0,-3.0,1.5,0.56,0.56,0.26,0.56,0.0,0.0,0.0
1752860876383,262.0,18.0,-73.0,-1.0,3.0,2.0,-3.8,-5.9,-0.4,0.53,0.53,0.29,0.6,0.0,0.0,0.0
1752860876532,264.0,1.0,-73.0,-4.0,-4.0,4.0,-4.5,-13.3,1.4,0.51,0.5,0.34,0.61,0.0,0.0,0.0
1752860876567,263.0,2.0,-76.0,-6.0,1.0,3.0,-6.0,-8.9,0.8,0.52,0.41,0.45,0.6,0.0,0.0,0.0
1752860876607,264.0,3.0,-86.0,-1.0,7.0,-1.0,-1.7,-2.5,-1.8,0.5,0.47,0.47,0.55,0.0,0.0,0.0
1752860877308,306.0,-3.0,-99.0,-7.0,13.0,-2.0,-6.9,3.0,-0.1,0.57,0.67,0.4,0.27,0.0,0.0,0.0
1752860877357,302.0,-2.0,-100.0,-4.0,16.0,-3.0,-3.9,6.2,-1.4,0.57,0.66,0.39,0.3,0.0,0.0,0.0
1752860877389,300.0,-1.0,-98.0,-0.0,14.0,-0.0,-0.1,4.0,1.0,0.56,0.66,0.39,0.32,0.0,0.0,0.0
1752860877438,300.0,-1.0,-96.0,3.0,11.0,-2.0,2.8,0.3,-2.4,0.58,0.64,0.38,0.33,0.0,0.0,0.0
1752860877487,301.0,-1.0,-94.0,1.0,7.0,-2.0,1.6,-2.9,-2.0,0.59,0.63,0.38,0.34,0.0,0.0,0.0
1752860877624,306.0,-10.0,-89.0,-8.0,8.0,-2.0,-2.4,-0.8,-1.8,0.61,0.6,0.38,0.34,0.0,0.0,0.0
1752860877675,305.0,-10.0,-87.0,5.0,3.0,2.0,6.2,-7.0,-0.1,0.64,0.55,0.42,0.33,0.0,0.0,0.0
1752860877708,305.0,-10.0,-86.0,4.0,4.0,-1.0,5.2,-4.6,-2.4,0.65,0.54,0.41,0.34,0.0,0.0,0.0
1752860877749,303.0,-9.0,-88.0,2.0,7.0,0.0,3.8,-2.4,0.0,0.64,0.55,0.42,0.34,0.0,0.0,0.0
1752860877792,301.0,-7.0,-91.0,-0.0,9.0,-2.0,1.0,-0.5,-1.9,0.62,0.57,0.42,0.34,0.0,0.0,0.0
1752860877941,285.0,5.0,-95.0,-2.0,12.0,-3.0,-3.4,1.0,-1.7,0.6,0.58,0.42,0.35,0.0,0.0,0.0
1752860877978,280.0,8.0,-95.0,-6.0,10.0,-4.0,-7.7,0.7,-2.9,0.52,0.63,0.39,0.44,0.0,0.0,0.0
1752860878127,278.0,10.0,-100.0,2.0,6.0,-2.0,0.9,-5.8,0.7,0.5,0.63,0.39,0.45,0.0,0.0,0.0
1752860878176,283.0,6.0,-99.0,1.0,2.0,1.0,-0.3,-7.4,2.7,0.51,0.64,0.41,0.41,0.0,0.0,0.0
1752860878217,289.0,1.0,-97.0,-6.0,1.0,-1.0,-6.0,-9.0,-0.2,0.53,0.62,0.44,0.37,0.0,0.0,0.0
1752860878252,289.0,1.0,-96.0,-1.0,2.0,3.0,-1.5,-8.0,4.0,0.55,0.61,0.42,0.39,0.0,0.0,0.0
1752860878302,289.0,2.0,-102.0,-1.0,7.0,-1.0,-1.4,-1.7,0.8,0.52,0.64,0.43,0.37,0.0,0.0,0.0
1752860878344,291.0,1.0,-107.0,-4.0,13.0,-5.0,-4.4,3.6,-1.8,0.49,0.67,0.44,0.34,0.0,0.0,0.0
1752860878498,291.0,1.0,-107.0,6.0,16.0,-3.0,6.0,6.5,0.3,0.51,0.66,0.44,0.33,0.0,0.0,0.0
1752860878532,287.0,4.0,-108.0,6.0,6.0,-2.0,5.3,-3.3,1.3,0.47,0.68,0.44,0.35,0.0,0.0,0.0
1752860878579,286.0,5.0,-104.0,5.0,3.0,-0.0,3.9,-6.9,1.3,0.48,0.67,0.42,0.37,0.0,0.0,0.0
1752860878618,287.0,4.0,-101.0,5.0,4.0,-2.0,3.6,-4.5,-0.8,0.51,0.65,0.41,0.38,0.0,0.0,0.0
1752860878664,289.0,3.0,-102.0,3.0,7.0,-2.0,1.4,-2.8,0.3,0.51,0.65,0.42,0.37,0.0,0.0,0.0
1752860878701,295.0,-2.0,-100.0,-1.0,6.0,-1.0,-0.3,-4.1,0.8,0.53,0.64,0.44,0.35,0.0,0.0,0.0
1752860878742,298.0,-7.0,-97.0,-2.0,4.0,0.0,-1.2,-5.7,1.2,0.57,0.6,0.45,0.33,0.0,0.0,0.0
1752860878901,290.0,-0.0,-96.0,0.0,14.0,-2.0,0.3,4.2,-0.5,0.58,0.58,0.45,0.35,0.0,0.0,0.0
1752860878935,285.0,3.0,-96.0,3.0,10.0,-0.0,1.7,0.7,0.3,0.53,0.61,0.42,0.41,0.0,0.0,0.0
1752860878986,280.0,7.0,-92.0,4.0,9.0,-1.0,2.1,-1.7,-1.5,0.53,0.6,0.4,0.44,0.0,0.0,0.0
1752860879120,270.0,7.0,-93.0,2.0,16.0,2.0,2.0,7.1,1.8,0.49,0.58,0.44,0.49,0.0,0.0,0.0
1752860879161,271.0,7.0,-96.0,3.0,11.0,-2.0,1.6,-0.3,-0.8,0.48,0.59,0.46,0.47,0.0,0.0,0.0
1752860879203,275.0,3.0,-94.0,0.0,1.0,-1.0,-0.2,-8.5,-0.4,0.49,0.58,0.46,0.46,0.0,0.0,0.0
1752860879253,279.0,0.0,-86.0,1.0,-8.0,-1.0,0.8,-18.1,-1.6,0.55,0.53,0.45,0.46,0.0,0.0,0.0
1752860879287,278.0,2.0,-82.0,-0.0,-1.0,4.0,-0.7,-9.2,2.4,0.57,0.51,0.42,0.49,0.0,0.0,0.0
1752860879337,276.0,4.0,-84.0,1.0,7.0,2.0,0.5,-2.3,1.5,0.55,0.52,0.41,0.5,0.0,0.0,0.0
1752860879370,275.0,6.0,-88.0,1.0,10.0,-2.0,-1.5,0.4,-3.2,0.53,0.56,0.41,0.49,0.0,0.0,0.0
1752860879417,273.0,9.0,-92.0,-2.0,11.0,-2.0,-3.9,1.4,-0.8,0.51,0.59,0.41,0.48,0.0,0.0,0.0
1752860879453,272.0,12.0,-94.0,-0.0,13.0,-0.0,-2.6,3.3,0.5,0.5,0.61,0.39,0.48,0.0,0.0,0.0
1752860879504,272.0,15.0,-98.0,2.0,8.0,-6.0,-0.3,-1.1,-4.1,0.47,0.65,0.37,0.46,0.0,0.0,0.0
1752860879637,275.0,16.0,-99.0,3.0,9.0,-6.0,-2.7,-3.1,7.6,0.48,0.68,0.35,0.44,0.0,0.0,0.0
1752860879787,308.0,-5.0,-107.0,2.0,2.0,-0.0,2.5,-7.2,2.4,0.53,0.69,0.41,0.26,0.0,0.0,0.0
1752860879822,309.0,-5.0,-105.0,1.0,5.0,-1.0,1.7,-4.0,0.0,0.55,0.68,0.41,0.26,0.0,0.0,0.0
1752860879871,310.0,-5.0,-106.0,0.0,8.0,-5.0,1.2,-1.3,-2.1,0.55,0.69,0.41,0.26,0.0,0.0,0.0
1752860879904,310.0,-4.0,-109.0,-2.0,12.0,-5.0,-1.2,3.1,-1.9,0.53,0.7,0.4,0.25,0.0,0.0,0.0
1752860879951,308.0,-2.0,-110.0,-3.0,14.0,-2.0,-2.5,5.0,1.3,0.52,0.72,0.39,0.25,0.0,0.0,0.0
1752860880189,296.0,2.0,-92.0,1.0,8.0,1.0,2.6,1.8,-5.0,0.54,0.71,0.37,0.27,0.0,0.0,0.0
1752860880245,278.0,0.0,-90.0,1.0,9.0,-3.0,1.0,-0.7,-2.4,0.53,0.54,0.46,0.46,0.0,0.0,0.0
1752860880287,271.0,1.0,-96.0,-1.0,6.0,-2.0,-0.7,-4.2,-0.6,0.48,0.54,0.51,0.47,0.0,0.0,0.0
1752860880334,269.0,-1.0,-100.0,-2.0,28.0,-3.0,-5.1,-20.3,9.0,0.45,0.54,0.55,0.46,0.0,0.0,0.0
1752860880387,268.0,-1.0,-98.0,-1.0,-1.0,-2.0,-1.7,-12.1,-0.4,0.45,0.52,0.55,0.47,0.0,0.0,0.0
1752860880417,269.0,-4.0,-88.0,-4.0,3.0,4.0,-3.3,-5.8,4.6,0.5,0.45,0.53,0.51,0.0,0.0,0.0
1752860881019,225.0,2.0,-93.0,-1.0,12.0,1.0,-1.0,2.4,1.7,0.26,0.3,0.66,0.64,0.0,0.0,0.0
1752860881050,224.0,3.0,-95.0,-1.0,12.0,-2.0,-1.3,2.7,-1.3,0.26,0.31,0.66,0.63,0.0,0.0,0.0
1752860881285,218.0,8.0,-94.0,1.0,9.0,-3.0,0.0,-1.1,-2.3,0.26,0.31,0.66,0.63,0.0,0.0,0.0
1752860881335,217.0,9.0,-91.0,4.0,7.0,-1.0,2.2,-3.3,-0.6,0.22,0.33,0.63,0.66,0.0,0.0,0.0
1752860881385,217.0,10.0,-91.0,3.0,5.0,-0.0,1.3,-4.7,-0.3,0.23,0.34,0.63,0.67,0.0,0.0,0.0
1752860881419,221.0,7.0,-90.0,1.0,3.0,1.0,-0.0,-6.4,0.6,0.24,0.33,0.62,0.67,0.0,0.0,0.0
1752860881452,225.0,4.0,-94.0,4.0,-0.0,-4.0,3.1,-10.0,-3.0,0.26,0.32,0.65,0.64,0.0,0.0,0.0
1752860881502,226.0,4.0,-93.0,-1.0,5.0,-0.0,-1.9,-5.2,0.1,0.26,0.32,0.65,0.64,0.0,0.0,0.0
1752860881552,226.0,5.0,-94.0,-2.0,7.0,-1.0,-3.3,-1.5,-0.5,0.27,0.33,0.65,0.63,0.0,0.0,0.0
1752860881593,227.0,4.0,-97.0,-2.0,10.0,-0.0,-2.8,1.9,0.8,0.26,0.35,0.66,0.61,0.0,0.0,0.0
1752860881652,229.0,3.0,-99.0,-2.0,14.0,-4.0,-2.1,4.4,-2.6,0.27,0.36,0.67,0.59,0.0,0.0,0.0
1752860881786,233.0,2.0,-98.0,2.0,11.0,-0.0,1.9,1.0,0.7,0.3,0.36,0.66,0.59,0.0,0.0,0.0
1752860881936,246.0,-8.0,-91.0,-9.0,11.0,9.0,4.2,-13.6,3.7,0.3,0.36,0.65,0.6,0.0,0.0,0.0
1752860881983,249.0,-10.0,-92.0,1.0,5.0,-1.0,2.5,-4.6,-1.0,0.4,0.3,0.65,0.57,0.0,0.0,0.0
1752860882012,251.0,-11.0,-89.0,-1.0,7.0,-1.0,1.0,-2.4,-1.9,0.41,0.29,0.64,0.58,0.0,0.0,0.0
1752860882054,252.0,-10.0,-91.0,-2.0,13.0,-2.0,-0.1,2.8,-1.2,0.41,0.3,0.64,0.57,0.0,0.0,0.0
1752860882116,251.0,-9.0,-93.0,-2.0,14.0,-2.0,-0.2,4.2,-1.8,0.4,0.33,0.65,0.56,0.0,0.0,0.0
1752860882241,247.0,-3.0,-94.0,-1.0,13.0,-3.0,-0.7,3.2,-1.8,0.39,0.34,0.64,0.56,0.0,0.0,0.0
1752860882286,249.0,-1.0,-98.0,1.0,11.0,-4.0,1.2,1.1,-3.5,0.37,0.41,0.63,0.55,0.0,0.0,0.0
1752860882327,251.0,-1.0,-97.0,3.0,11.0,-4.0,3.6,1.0,-2.4,0.38,0.43,0.61,0.54,0.0,0.0,0.0
1752860882374,252.0,-0.0,-99.0,3.0,11.0,-1.0,2.8,1.5,0.7,0.39,0.44,0.61,0.53,0.0,0.0,0.0
1752860882405,253.0,-1.0,-99.0,1.0,8.0,1.0,1.3,-1.3,2.9,0.38,0.45,0.62,0.52,0.0,0.0,0.0
1752860882451,257.0,-4.0,-97.0,2.0,12.0,-2.0,-6.5,13.8,1.8,0.41,0.43,0.62,0.52,0.0,0.0,0.0
1752860882610,258.0,3.0,-91.0,1.0,10.0,0.0,0.3,1.4,0.4,0.44,0.47,0.54,0.54,0.0,0.0,0.0
1752860882652,256.0,6.0,-92.0,-1.0,16.0,2.0,-1.8,6.0,2.8,0.43,0.5,0.52,0.54,0.0,0.0,0.0
1752860882694,255.0,9.0,-92.0,-3.0,11.0,0.0,-4.6,-0.6,-0.0,0.42,0.52,0.5,0.55,0.0,0.0,0.0
1752860882749,256.0,11.0,-91.0,-2.0,7.0,-2.0,-3.5,-3.0,-1.4,0.43,0.54,0.47,0.55,0.0,0.0,0.0
1752860882791,261.0,10.0,-92.0,0.0,11.0,-0.0,-1.3,1.8,-0.5,0.45,0.55,0.46,0.54,0.0,0.0,0.0
1752860882832,266.0,8.0,-97.0,-0.0,11.0,-4.0,-1.2,1.1,-2.3,0.45,0.58,0.47,0.48,0.0,0.0,0.0
1752860882873,275.0,4.0,-102.0,0.0,11.0,-4.0,-0.1,1.2,-1.4,0.46,0.6,0.48,0.44,0.0,0.0,0.0
1752860883020,298.0,-4.0,-99.0,-1.0,3.0,0.0,0.1,-6.4,2.0,0.48,0.62,0.49,0.39,0.0,0.0,0.0
1752860883054,303.0,-5.0,-100.0,-2.0,7.0,1.0,-0.7,-2.2,2.4,0.56,0.64,0.42,0.31,0.0,0.0,0.0
1752860883089,306.0,-6.0,-100.0,-2.0,12.0,-1.0,-1.2,2.2,0.2,0.58,0.64,0.41,0.29,0.0,0.0,0.0
1752860883239,304.0,2.0,-94.0,5.0,14.0,-4.0,5.7,4.5,-3.4,0.58,0.65,0.4,0.28,0.0,0.0,0.0
1752860883279,303.0,6.0,-99.0,7.0,15.0,-5.0,7.3,5.2,-2.0,0.57,0.7,0.29,0.31,0.0,0.0,0.0
1752860883322,305.0,6.0,-99.0,8.0,8.0,-2.0,6.7,-1.5,-1.0,0.57,0.71,0.28,0.3,0.0,0.0,0.0
1752860883459,320.0,2.0,-90.0,-0.0,2.0,1.0,-0.3,-6.1,0.9,0.6,0.7,0.26,0.29,0.0,0.0,0.0
1752860883510,321.0,3.0,-89.0,1.0,6.0,0.0,0.5,-3.9,0.0,0.68,0.66,0.2,0.24,0.0,0.0,0.0
1752860883547,320.0,5.0,-91.0,0.0,9.0,-1.0,-1.2,0.4,-0.7,0.67,0.68,0.19,0.24,0.0,0.0,0.0
1752860883597,319.0,8.0,-92.0,-3.0,12.0,-1.0,-5.1,1.8,-0.8,0.65,0.7,0.16,0.24,0.0,0.0,0.0
1752860883739,318.0,12.0,-95.0,1.0,12.0,-4.0,-0.7,2.5,-2.7,0.63,0.73,0.12,0.24,0.0,0.0,0.0
1752860883781,320.0,9.0,-95.0,0.0,8.0,-3.0,-1.0,-2.3,-0.5,0.64,0.72,0.13,0.23,0.0,0.0,0.0
1752860883931,339.0,-10.0,-99.0,4.0,11.0,-3.0,5.5,1.3,-1.3,0.66,0.71,0.16,0.21,0.0,0.0,0.0
1752860883965,339.0,-10.0,-96.0,1.0,9.0,0.0,3.0,-0.3,1.2,0.65,0.7,0.26,0.12,0.0,0.0,0.0
1752860884026,338.0,-10.0,-92.0,1.0,7.0,3.0,2.6,-2.6,2.9,0.68,0.68,0.26,0.13,0.0,0.0,0.0
1752860884364,316.0,4.0,-92.0,1.0,9.0,1.0,-0.0,-0.9,0.9,0.64,0.68,0.22,0.26,0.0,0.0,0.0
1752860884400,317.0,3.0,-90.0,2.0,8.0,3.0,1.6,-2.0,2.8,0.65,0.68,0.22,0.26,0.0,0.0,0.0
1752860884647,331.0,-1.0,-88.0,2.0,7.0,2.0,1.6,-0.7,1.0,0.66,0.67,0.22,0.24,0.0,0.0,0.0
1752860884703,330.0,1.0,-93.0,-1.0,13.0,-3.0,-1.1,3.0,-2.2,0.67,0.7,0.17,0.18,0.0,0.0,0.0
1752860884839,331.0,4.0,-93.0,-2.0,8.0,-2.0,-2.6,-1.5,-1.1,0.65,0.72,0.15,0.18,0.0,0.0,0.0
1752860885443,299.0,15.0,-85.0,1.0,9.0,0.0,-2.8,-3.2,-0.6,0.63,0.65,0.18,0.37,0.0,0.0,0.0
1752860885576,288.0,8.0,-92.0,-5.0,11.0,-2.0,-6.7,1.3,-1.2,0.63,0.63,0.2,0.42,0.0,0.0,0.0
1752860885624,292.0,4.0,-93.0,-12.0,10.0,9.0,-12.4,0.2,8.6,0.54,0.66,0.37,0.38,0.0,0.0,0.0
1752860885660,294.0,5.0,-87.0,-4.0,1.0,2.0,-3.4,-9.1,-0.1,0.61,0.6,0.33,0.4,0.0,0.0,0.0
1752860885706,298.0,5.0,-92.0,0.0,3.0,-4.0,-0.3,-6.8,-3.6,0.6,0.64,0.32,0.36,0.0,0.0,0.0
1752860885860,292.0,11.0,-96.0,-0.0,13.0,-1.0,-3.0,3.7,1.4,0.6,0.66,0.31,0.34,0.0,0.0,0.0
1752860885894,284.0,14.0,-91.0,0.0,6.0,6.0,-2.4,-3.4,5.8,0.55,0.65,0.28,0.43,0.0,0.0,0.0
1752860885943,279.0,14.0,-85.0,1.0,5.0,5.0,-1.0,-4.7,4.4,0.55,0.62,0.3,0.47,0.0,0.0,0.0
1752860886076,289.0,-8.0,-94.0,4.0,15.0,2.0,5.5,4.8,2.2,0.57,0.57,0.34,0.49,0.0,0.0,0.0
1752860886113,291.0,-10.0,-88.0,2.0,10.0,-2.0,3.7,0.0,-2.6,0.58,0.5,0.5,0.41,0.0,0.0,0.0
1752860886153,292.0,-11.0,-85.0,1.0,11.0,-3.0,3.2,1.3,-3.4,0.61,0.48,0.48,0.41,0.0,0.0,0.0
1752860886195,293.0,-11.0,-84.0,1.0,9.0,-3.0,2.9,-1.1,-3.9,0.61,0.48,0.47,0.41,0.0,0.0,0.0
1752860886235,292.0,-9.0,-84.0,0.0,11.0,0.0,1.7,0.9,-0.9,0.62,0.49,0.46,0.41,0.0,0.0,0.0
1752860886273,290.0,-6.0,-83.0,-1.0,8.0,-0.0,0.2,-1.6,-1.5,0.61,0.5,0.44,0.42,0.0,0.0,0.0
1752860886312,288.0,-3.0,-83.0,-2.0,11.0,1.0,-1.3,0.8,0.3,0.61,0.51,0.42,0.44,0.0,0.0,0.0
1752860886555,268.0,7.0,-89.0,-2.0,5.0,1.0,-2.8,-4.5,-0.1,0.58,0.53,0.42,0.45,0.0,0.0,0.0
1752860886599,259.0,7.0,-89.0,1.0,13.0,-2.0,0.8,4.9,-2.4,0.46,0.51,0.47,0.55,0.0,0.0,0.0
1752860886653,262.0,4.0,-90.0,3.0,15.0,-0.0,2.4,5.2,-0.5,0.46,0.5,0.5,0.54,0.0,0.0,0.0
1752860886703,264.0,1.0,-89.0,3.0,10.0,-1.0,3.6,-0.2,-0.8,0.48,0.48,0.51,0.53,0.0,0.0,0.0
1752860886737,269.0,-4.0,-87.0,3.0,6.0,-0.0,3.9,-4.1,-0.9,0.51,0.45,0.52,0.52,0.0,0.0,0.0
1752860886783,272.0,-8.0,-85.0,5.0,-6.0,-3.0,6.5,-15.8,-3.8,0.52,0.43,0.54,0.5,0.0,0.0,0.0
1752860886820,267.0,-4.0,-85.0,0.0,-1.0,2.0,0.6,-10.7,1.5,0.51,0.43,0.52,0.53,0.0,0.0,0.0
1752860886854,266.0,-2.0,-88.0,-0.0,3.0,1.0,-0.0,-6.3,0.8,0.5,0.45,0.52,0.53,0.0,0.0,0.0
1752860886904,266.0,-1.0,-91.0,-1.0,11.0,-2.0,-1.6,2.2,-3.1,0.48,0.47,0.53,0.52,0.0,0.0,0.0
1752860887054,267.0,0.0,-93.0,2.0,11.0,-4.0,0.5,1.5,-2.8,0.47,0.5,0.52,0.5,0.0,0.0,0.0
1752860887101,269.0,12.0,-97.0,4.0,8.0,-2.0,2.5,-1.5,-0.6,0.46,0.62,0.42,0.48,0.0,0.0,0.0
1752860887136,270.0,14.0,-98.0,6.0,9.0,-0.0,3.0,0.3,1.7,0.47,0.65,0.38,0.46,0.0,0.0,0.0
1752860887172,272.0,16.0,-101.0,5.0,11.0,-1.0,2.3,1.0,1.0,0.46,0.68,0.36,0.44,0.0,0.0,0.0
1752860887221,276.0,16.0,-104.0,3.0,7.0,0.0,0.3,-2.5,2.5,0.45,0.7,0.35,0.42,0.0,0.0,0.0
1752860887371,281.0,14.0,-107.0,-12.0,13.0,5.0,0.1,-4.1,2.2,0.46,0.72,0.34,0.39,0.0,0.0,0.0
1752860887505,300.0,5.0,-108.0,0.0,12.0,-2.0,-0.5,2.3,0.6,0.51,0.73,0.34,0.29,0.0,0.0,0.0
1752860887555,298.0,6.0,-107.0,1.0,9.0,-3.0,-0.2,-0.6,-0.5,0.51,0.73,0.34,0.31,0.0,0.0,0.0
1752860887698,285.0,15.0,-108.0,4.0,12.0,-7.0,1.4,2.6,-3.9,0.52,0.71,0.32,0.34,0.0,0.0,0.0
1752860887740,285.0,16.0,-109.0,4.0,11.0,-7.0,1.1,1.1,-3.3,0.47,0.76,0.29,0.36,0.0,0.0,0.0
1752860887773,288.0,16.0,-107.0,4.0,8.0,-6.0,0.3,-0.3,-2.3,0.48,0.76,0.26,0.35,0.0,0.0,0.0
1752860887823,291.0,16.0,-105.0,4.0,9.0,-5.0,1.7,0.4,-2.1,0.5,0.76,0.24,0.35,0.0,0.0,0.0
1752860887857,294.0,16.0,-103.0,4.0,6.0,-2.0,1.4,-2.9,0.1,0.52,0.75,0.23,0.34,0.0,0.0,0.0
1752860887998,302.0,6.0,-104.0,2.0,2.0,-0.0,1.2,-8.0,1.3,0.55,0.73,0.23,0.33,0.0,0.0,0.0
1752860888079,306.0,-0.0,-93.0,-0.0,4.0,1.0,-0.8,-4.3,2.0,0.6,0.66,0.33,0.31,0.0,0.0,0.0
1752860888087,303.0,-2.0,-97.0,-2.0,10.0,-2.0,-1.9,0.5,-1.1,0.58,0.65,0.38,0.32,0.0,0.0,0.0
1752860888128,300.0,-3.0,-101.0,-3.0,11.0,-3.0,-2.6,-0.5,-2.8,0.55,0.65,0.42,0.32,0.0,0.0,0.0
1752860888168,297.0,-3.0,-100.0,-5.0,11.0,-3.0,-4.5,0.9,-0.9,0.55,0.63,0.43,0.33,0.0,0.0,0.0
1752860888211,293.0,-0.0,-101.0,-3.0,14.0,-3.0,-3.2,4.5,-1.1,0.53,0.64,0.43,0.35,0.0,0.0,0.0
1752860888569,301.0,-16.0,-90.0,5.0,9.0,-5.0,7.5,-0.7,-4.3,0.62,0.48,0.5,0.36,0.0,0.0,0.0
1752860888620,305.0,-16.0,-94.0,5.0,10.0,-5.0,7.4,0.6,-3.9,0.61,0.52,0.51,0.32,0.0,0.0,0.0
1752860888856,306.0,-16.0,-96.0,4.0,11.0,-5.0,-2.9,5.0,-1.2,0.6,0.54,0.5,0.31,0.0,0.0,0.0
1752860889006,305.0,3.0,-111.0,-2.0,12.0,-4.0,-3.0,2.5,-0.6,0.5,0.75,0.34,0.26,0.0,0.0,0.0
1752860889056,310.0,3.0,-114.0,-1.0,10.0,-3.0,-1.7,1.5,1.3,0.49,0.78,0.31,0.24,0.0,0.0,0.0
1752860889089,317.0,1.0,-115.0,-0.0,13.0,-2.0,-0.0,3.3,1.5,0.5,0.79,0.29,0.2,0.0,0.0,0.0
1752860889139,324.0,0.0,-119.0,3.0,8.0,-7.0,-1.4,7.0,-0.2,0.48,0.82,0.27,0.16,0.0,0.0,0.0
1752860889722,315.0,-2.0,-85.0,3.0,-5.0,-2.0,0.8,-18.0,-1.1,0.68,0.61,0.28,0.29,0.0,0.0,0.0
1752860889772,316.0,-2.0,-81.0,2.0,-2.0,1.0,2.1,-11.3,-0.6,0.7,0.59,0.26,0.29,0.0,0.0,0.0
1752860889909,324.0,-14.0,-82.0,-2.0,12.0,-0.0,0.2,3.0,-1.5,0.7,0.6,0.29,0.25,0.0,0.0,0.0
1752860889942,324.0,-15.0,-82.0,-6.0,13.0,-2.0,-4.0,3.9,-3.3,0.71,0.56,0.36,0.23,0.0,0.0,0.0
1752860890083,312.0,-7.0,-82.0,-3.0,9.0,0.0,-1.7,-0.3,-1.0,0.72,0.54,0.35,0.25,0.0,0.0,0.0
1752860890121,310.0,-6.0,-82.0,-1.0,13.0,1.0,0.4,3.5,-0.3,0.69,0.56,0.34,0.31,0.0,0.0,0.0
1752860890172,308.0,-5.0,-84.0,1.0,7.0,-4.0,1.9,-2.7,-4.4,0.67,0.57,0.34,0.33,0.0,0.0,0.0
1752860890214,307.0,-5.0,-84.0,4.0,8.0,-0.0,5.9,0.6,-1.2,0.66,0.57,0.35,0.33,0.0,0.0,0.0
1752860890250,309.0,-9.0,-82.0,3.0,10.0,2.0,5.3,0.1,0.3,0.68,0.55,0.37,0.32,0.0,0.0,0.0
1752860890298,313.0,-15.0,-84.0,0.0,8.0,3.0,4.2,0.2,2.0,0.68,0.52,0.42,0.29,0.0,0.0,0.0
1752860890335,320.0,-21.0,-84.0,1.0,5.0,10.0,9.1,-9.6,-1.4,0.7,0.5,0.44,0.25,0.0,0.0,0.0
1752860890377,320.0,-22.0,-82.0,3.0,6.0,-3.0,6.5,-5.2,-7.2,0.7,0.49,0.45,0.26,0.0,0.0,0.0
1752860890429,323.0,-23.0,-86.0,1.0,6.0,-6.0,5.0,-3.5,-6.1,0.7,0.51,0.45,0.23,0.0,0.0,0.0
1752860890463,322.0,-23.0,-88.0,1.0,6.0,-1.0,4.4,-2.5,-0.9,0.68,0.52,0.46,0.23,0.0,0.0,0.0
1752860890514,320.0,-23.0,-89.0,0.0,6.0,1.0,4.3,-3.7,-0.1,0.67,0.52,0.47,0.24,0.0,0.0,0.0
1752860890562,318.0,-21.0,-92.0,2.0,7.0,-3.0,5.7,-2.2,-2.8,0.65,0.54,0.48,0.25,0.0,0.0,0.0
1752860890599,313.0,-18.0,-98.0,1.0,8.0,-6.0,3.6,-0.6,-4.8,0.62,0.55,0.49,0.26,0.0,0.0,0.0
1752860890646,306.0,-15.0,-103.0,-1.0,10.0,-7.0,1.1,1.5,-4.9,0.56,0.57,0.53,0.28,0.0,0.0,0.0
1752860890683,297.0,-12.0,-106.0,-2.0,10.0,-5.0,0.2,2.2,-1.8,0.52,0.57,0.55,0.32,0.0,0.0,0.0
1752860890724,282.0,-7.0,-107.0,0.0,13.0,-5.0,1.1,3.4,-2.2,0.47,0.55,0.58,0.36,0.0,0.0,0.0
1752860890767,270.0,-3.0,-105.0,-1.0,9.0,-8.0,-0.6,-0.2,-5.1,0.44,0.53,0.6,0.42,0.0,0.0,0.0
1752860890909,241.0,8.0,-96.0,2.0,6.0,-5.0,0.9,-3.8,-4.1,0.4,0.51,0.6,0.47,0.0,0.0,0.0
1752860891054,242.0,2.0,-96.0,2.0,15.0,-1.0,2.3,5.5,-0.0,0.35,0.41,0.62,0.57,0.0,0.0,0.0
1752860891102,248.0,-3.0,-95.0,1.0,11.0,-2.0,1.7,-0.0,-1.9,0.37,0.38,0.63,0.57,0.0,0.0,0.0
1752860891147,251.0,-6.0,-95.0,0.0,4.0,-5.0,1.1,-6.3,-3.3,0.39,0.36,0.64,0.55,0.0,0.0,0.0
1752860891191,255.0,-12.0,-93.0,-4.0,3.0,1.0,-1.5,-6.7,1.4,0.41,0.32,0.65,0.55,0.0,0.0,0.0
1752860891231,254.0,-11.0,-99.0,-3.0,5.0,3.0,-1.8,-8.8,4.1,0.41,0.31,0.67,0.53,0.0,0.0,0.0
1752860891375,240.0,-1.0,-99.0,2.0,12.0,-2.0,2.4,1.9,-0.4,0.39,0.32,0.67,0.55,0.0,0.0,0.0
1752860891429,237.0,2.0,-97.0,2.0,10.0,2.0,1.9,0.8,3.0,0.32,0.38,0.65,0.58,0.0,0.0,0.0
1752860891965,242.0,14.0,-111.0,6.0,11.0,-2.0,-0.4,-7.6,-5.9,0.31,0.4,0.63,0.59,0.0,0.0,0.0
1752860892020,268.0,10.0,-96.0,-5.0,8.0,-11.0,4.9,0.0,-10.8,0.47,0.6,0.44,0.48,0.0,0.0,0.0
1752860892162,274.0,6.0,-91.0,-4.0,9.0,-3.0,-5.6,0.5,0.4,0.52,0.57,0.43,0.48,0.0,0.0,0.0
1752860892314,284.0,0.0,-99.0,-1.0,11.0,-1.0,-0.6,0.4,1.3,0.51,0.6,0.47,0.4,0.0,0.0,0.0
1752860892362,288.0,-5.0,-96.0,-0.0,8.0,0.0,0.7,-1.7,1.0,0.54,0.56,0.48,0.4,0.0,0.0,0.0
1752860892512,293.0,-13.0,-101.0,-2.0,15.0,-5.0,0.7,5.2,-2.3,0.56,0.53,0.51,0.39,0.0,0.0,0.0
1752860892548,289.0,-12.0,-99.0,1.0,13.0,-2.0,3.1,2.3,-0.8,0.53,0.52,0.56,0.38,0.0,0.0,0.0
1752860892696,286.0,-11.0,-97.0,7.0,7.0,-6.0,9.3,-2.2,-5.2,0.51,0.52,0.55,0.39,0.0,0.0,0.0
1752860892732,288.0,-14.0,-96.0,4.0,7.0,-0.0,6.8,-2.9,0.9,0.54,0.48,0.56,0.4,0.0,0.0,0.0
1752860892783,290.0,-18.0,-98.0,5.0,-3.0,-8.0,3.3,-3.6,4.7,0.54,0.46,0.59,0.38,0.0,0.0,0.0
1752860893017,262.0,-5.0,-96.0,0.0,7.0,-0.0,1.0,-2.6,1.2,0.45,0.43,0.59,0.5,0.0,0.0,0.0
1752860893067,258.0,-2.0,-101.0,2.0,8.0,-5.0,2.3,-1.3,-2.4,0.4,0.46,0.62,0.49,0.0,0.0,0.0
1752860893114,251.0,1.0,-106.0,1.0,16.0,-4.0,0.3,6.7,-1.6,0.35,0.48,0.64,0.49,0.0,0.0,0.0
1752860893267,233.0,12.0,-98.0,-5.0,7.0,-1.0,-7.2,-2.0,-0.3,0.29,0.47,0.59,0.59,0.0,0.0,0.0
1752860893415,244.0,8.0,-94.0,9.0,11.0,-5.0,7.6,1.2,-3.1,0.3,0.48,0.57,0.6,0.0,0.0,0.0
1752860893451,248.0,5.0,-96.0,10.0,10.0,-1.0,9.6,0.7,-0.4,0.38,0.47,0.58,0.55,0.0,0.0,0.0
1752860893499,261.0,-5.0,-97.0,8.0,12.0,-3.0,9.4,2.1,-2.1,0.42,0.44,0.61,0.52,0.0,0.0,0.0
1752860893635,276.0,-19.0,-99.0,-1.0,18.0,-5.0,2.6,9.4,-2.8,0.46,0.41,0.64,0.46,0.0,0.0,0.0
1752860893668,277.0,-19.0,-104.0,-7.0,20.0,-5.0,-3.4,11.0,-2.4,0.47,0.37,0.68,0.41,0.0,0.0,0.0
1752860894020,227.0,6.0,-93.0,-0.0,5.0,1.0,1.1,-1.1,-1.6,0.45,0.39,0.68,0.43,0.0,0.0,0.0
1752860894061,221.0,3.0,-81.0,3.0,4.0,-1.0,2.7,-5.4,-3.0,0.27,0.26,0.6,0.71,0.0,0.0,0.0
1752860894804,258.0,-17.0,-88.0,-2.0,6.0,3.0,5.3,-6.6,-1.0,0.45,0.26,0.64,0.56,0.0,0.0,0.0
1752860894942,263.0,-11.0,-107.0,-8.0,11.0,-6.0,-6.2,1.5,-3.0,0.44,0.28,0.67,0.53,0.0,0.0,0.0
1752860894989,264.0,-7.0,-109.0,-6.0,10.0,-7.0,-5.5,0.4,-3.6,0.39,0.44,0.68,0.44,0.0,0.0,0.0
1752860895026,265.0,-2.0,-111.0,-4.0,10.0,-6.0,-4.1,1.2,-2.4,0.38,0.52,0.64,0.42,0.0,0.0,0.0
1752860895176,290.0,3.0,-112.0,-2.0,8.0,-11.0,-2.1,1.4,-5.3,0.4,0.58,0.58,0.4,0.0,0.0,0.0
1752860895224,298.0,3.0,-113.0,4.0,9.0,-5.0,3.4,-0.1,-1.4,0.47,0.74,0.38,0.28,0.0,0.0,0.0
1752860895360,334.0,-17.0,-111.0,-16.0,26.0,12.0,-0.5,-1.4,6.1,0.49,0.74,0.37,0.26,0.0,0.0,0.0
1752860895407,340.0,-19.0,-112.0,6.0,5.0,-7.0,10.2,-1.5,-1.2,0.56,0.71,0.41,0.1,0.0,0.0,0.0
1752860895439,340.0,-23.0,-98.0,7.0,3.0,-3.0,10.1,-6.0,-1.0,0.65,0.63,0.41,0.11,0.0,0.0,0.0
1752860895685,297.0,-16.0,-108.0,-5.0,12.0,-4.0,-2.4,2.9,-1.7,0.66,0.62,0.4,0.12,0.0,0.0,0.0
1752860895734,287.0,-15.0,-105.0,-6.0,10.0,-5.0,-3.9,2.2,-1.9,0.5,0.5,0.62,0.35,0.0,0.0,0.0
1752860896083,296.0,-25.0,-83.0,4.0,7.0,-2.0,7.2,-2.3,-1.6,0.62,0.36,0.56,0.4,0.0,0.0,0.0
1752860896146,296.0,-25.0,-87.0,6.0,6.0,3.0,10.8,-2.6,2.6,0.6,0.38,0.58,0.38,0.0,0.0,0.0
1752860896264,303.0,-26.0,-100.0,-5.0,14.0,-3.0,-1.3,5.4,-1.6,0.62,0.36,0.58,0.37,0.0,0.0,0.0
1752860896407,286.0,-11.0,-97.0,5.0,7.0,-1.0,5.8,-1.3,1.2,0.56,0.46,0.61,0.32,0.0,0.0,0.0
1752860896551,280.0,-2.0,-92.0,-1.0,10.0,-5.0,-0.3,0.3,-4.7,0.52,0.51,0.55,0.41,0.0,0.0,0.0
1752860896586,277.0,-1.0,-88.0,-2.0,8.0,1.0,-1.5,-1.7,0.0,0.54,0.52,0.47,0.47,0.0,0.0,0.0
1752860896627,277.0,-1.0,-84.0,-2.0,11.0,2.0,-1.4,1.7,0.9,0.55,0.5,0.46,0.49,0.0,0.0,0.0
1752860896978,285.0,-1.0,-87.0,0.0,8.0,-1.0,-0.5,-1.2,-3.9,0.56,0.49,0.46,0.49,0.0,0.0,0.0
1752860897130,300.0,8.0,-122.0,4.0,9.0,-8.0,2.7,1.0,-3.5,0.42,0.82,0.3,0.24,0.0,0.0,0.0
1752860897181,307.0,7.0,-121.0,3.0,10.0,-6.0,3.9,-0.6,-3.6,0.44,0.83,0.27,0.22,0.0,0.0,0.0
1752860897329,319.0,2.0,-103.0,1.0,8.0,-1.0,0.8,-2.1,0.3,0.58,0.74,0.25,0.22,0.0,0.0,0.0
1752860897367,326.0,-3.0,-105.0,8.0,6.0,-0.0,8.4,-3.3,2.7,0.58,0.74,0.27,0.18,0.0,0.0,0.0
1752860897418,334.0,-3.0,-108.0,-1.0,4.0,-5.0,-0.5,-4.7,-1.0,0.56,0.78,0.24,0.14,0.0,0.0,0.0
1752860897555,333.0,-4.0,-98.0,-3.0,11.0,0.0,-2.2,1.1,1.0,0.64,0.72,0.23,0.15,0.0,0.0,0.0
1752860897596,328.0,-4.0,-93.0,-2.0,10.0,2.0,-1.2,0.3,2.8,0.66,0.68,0.24,0.19,0.0,0.0,0.0
1752860897640,322.0,-5.0,-83.0,1.0,13.0,5.0,1.8,2.8,3.1,0.7,0.62,0.26,0.24,0.0,0.0,0.0
1752860897691,316.0,-5.0,-78.0,3.0,12.0,1.0,4.0,2.5,-1.4,0.72,0.57,0.29,0.28,0.0,0.0,0.0
1752860897725,310.0,-7.0,-76.0,4.0,12.0,-2.0,4.9,1.9,-4.9,0.72,0.53,0.32,0.32,0.0,0.0,0.0
1752860897776,305.0,-9.0,-77.0,3.0,10.0,-1.0,4.4,0.9,-3.4,0.69,0.49,0.38,0.36,0.0,0.0,0.0
1752860897811,300.0,-12.0,-78.0,2.0,9.0,-2.0,4.1,-0.5,-4.6,0.67,0.47,0.43,0.39,0.0,0.0,0.0
1752860897845,298.0,-16.0,-78.0,0.0,5.0,-3.0,2.8,-5.6,-4.3,0.66,0.43,0.47,0.4,0.0,0.0,0.0
1752860897887,298.0,-22.0,-76.0,9.0,21.0,-0.0,13.3,12.8,-2.4,0.67,0.38,0.49,0.41,0.0,0.0,0.0
1752860897931,293.0,-23.0,-84.0,-2.0,3.0,-1.0,2.2,-5.7,-2.1,0.63,0.37,0.55,0.41,0.0,0.0,0.0
1752860898075,291.0,-22.0,-92.0,-2.0,10.0,-1.0,1.2,-0.5,-0.5,0.62,0.36,0.57,0.41,0.0,0.0,0.0
1752860898128,286.0,-17.0,-92.0,-3.0,8.0,-0.0,0.0,-1.8,0.2,0.56,0.42,0.59,0.42,0.0,0.0,0.0
1752860898172,282.0,-14.0,-92.0,-5.0,7.0,-2.0,-3.6,-2.0,-2.0,0.54,0.43,0.58,0.43,0.0,0.0,0.0
1752860898208,281.0,-12.0,-92.0,-5.0,8.0,-2.0,-2.4,-1.3,-1.2,0.54,0.45,0.57,0.44,0.0,0.0,0.0
1752860898247,282.0,-12.0,-94.0,-2.0,12.0,-2.0,0.6,2.7,-2.0,0.53,0.46,0.56,0.43,0.0,0.0,0.0
1752860898388,293.0,-19.0,-93.0,2.0,3.0,2.0,5.5,-6.4,2.1,0.53,0.48,0.57,0.41,0.0,0.0,0.0
1752860898434,299.0,-21.0,-96.0,0.0,-2.0,0.0,3.6,-10.9,1.3,0.58,0.45,0.58,0.35,0.0,0.0,0.0
1752860898580,300.0,-15.0,-98.0,1.0,11.0,-4.0,3.3,1.4,-1.8,0.58,0.48,0.57,0.34,0.0,0.0,0.0
1752860898733,295.0,-10.0,-96.0,2.0,12.0,-4.0,1.0,1.9,-3.2,0.56,0.55,0.5,0.36,0.0,0.0,0.0
1752860898783,285.0,6.0,-93.0,4.0,14.0,-2.0,3.1,4.6,-1.7,0.55,0.62,0.38,0.42,0.0,0.0,0.0
1752860898817,285.0,9.0,-91.0,5.0,11.0,-1.0,3.6,-0.4,-0.8,0.55,0.63,0.35,0.42,0.0,0.0,0.0
1752860898864,286.0,9.0,-89.0,6.0,10.0,-2.0,3.6,1.6,-2.7,0.57,0.62,0.33,0.43,0.0,0.0,0.0
1752860898901,286.0,9.0,-88.0,2.0,7.0,1.0,0.3,-2.3,0.6,0.57,0.61,0.33,0.43,0.0,0.0,0.0
1752860898951,287.0,7.0,-89.0,-1.0,0.0,0.0,-2.5,-9.7,0.2,0.57,0.61,0.34,0.43,0.0,0.0,0.0
1752860899093,291.0,3.0,-90.0,-2.0,4.0,-2.0,-2.3,-3.9,-2.1,0.58,0.6,0.37,0.41,0.0,0.0,0.0
1752860899136,294.0,4.0,-83.0,-3.0,6.0,0.0,-3.7,-3.4,-0.9,0.63,0.59,0.32,0.4,0.0,0.0,0.0
1752860899735,285.0,2.0,-91.0,-3.0,7.0,-4.0,-3.6,-1.1,-2.1,0.56,0.57,0.41,0.43,0.0,0.0,0.0
1752860899883,285.0,1.0,-100.0,1.0,21.0,-3.0,1.0,11.8,-1.2,0.51,0.61,0.45,0.39,0.0,0.0,0.0
1752860900035,291.0,-4.0,-91.0,4.0,5.0,-5.0,4.7,-4.2,-4.9,0.5,0.62,0.46,0.39,0.0,0.0,0.0
1752860900071,296.0,-10.0,-89.0,1.0,5.0,1.0,3.4,-4.0,0.5,0.6,0.52,0.47,0.38,0.0,0.0,0.0
1752860900117,302.0,-18.0,-88.0,-0.0,7.0,1.0,3.0,-2.1,-0.1,0.63,0.48,0.5,0.35,0.0,0.0,0.0
1752860900371,300.0,-10.0,-83.0,3.0,12.0,0.0,4.4,2.4,-0.9,0.65,0.51,0.42,0.37,0.0,0.0,0.0
1752860900404,296.0,-5.0,-83.0,3.0,12.0,0.0,3.6,2.3,-1.0,0.63,0.53,0.4,0.4,0.0,0.0,0.0
1752860900447,291.0,0.0,-82.0,3.0,11.0,2.0,2.4,1.7,0.1,0.62,0.54,0.38,0.42,0.0,0.0,0.0
1752860900481,289.0,3.0,-81.0,2.0,12.0,2.0,1.3,2.8,0.2,0.62,0.55,0.35,0.44,0.0,0.0,0.0
1752860900529,288.0,5.0,-82.0,1.0,13.0,-1.0,0.5,3.3,-2.0,0.61,0.56,0.34,0.45,0.0,0.0,0.0
1752860900572,287.0,6.0,-84.0,0.0,13.0,1.0,-0.8,3.8,0.2,0.6,0.57,0.33,0.44,0.0,0.0,0.0
1752860900614,289.0,7.0,-85.0,0.0,12.0,1.0,-1.2,1.3,-0.1,0.6,0.59,0.33,0.43,0.0,0.0,0.0
1752860900664,291.0,7.0,-86.0,-1.0,8.0,0.0,-2.1,-1.7,-0.2,0.6,0.6,0.32,0.42,0.0,0.0,0.0
1752860900697,294.0,6.0,-87.0,-3.0,7.0,4.0,-3.9,-2.9,3.4,0.61,0.61,0.31,0.4,0.0,0.0,0.0
1752860900744,298.0,4.0,-88.0,-2.0,3.0,4.0,-3.0,-7.0,3.6,0.62,0.62,0.31,0.37,0.0,0.0,0.0
1752860900875,315.0,3.0,-86.0,-3.0,6.0,-0.0,-3.6,-3.4,-1.0,0.62,0.64,0.31,0.34,0.0,0.0,0.0
1752860901025,329.0,3.0,-91.0,2.0,12.0,-6.0,1.6,2.6,-6.1,0.68,0.66,0.21,0.25,0.0,0.0,0.0
1752860901158,334.0,5.0,-88.0,1.0,10.0,-5.0,-0.1,0.5,-6.0,0.68,0.7,0.14,0.18,0.0,0.0,0.0
1752860901192,334.0,4.0,-84.0,2.0,12.0,-3.0,0.9,1.8,-3.9,0.72,0.66,0.1,0.17,0.0,0.0,0.0
1752860901242,334.0,4.0,-82.0,1.0,10.0,-2.0,0.6,0.2,-3.2,0.73,0.65,0.1,0.17,0.0,0.0,0.0
1752860901383,343.0,0.0,-89.0,-6.0,15.0,3.0,-1.5,-10.5,0.2,0.74,0.64,0.11,0.17,0.0,0.0,0.0
1752860901425,348.0,-4.0,-84.0,-3.0,3.0,1.0,-1.5,-6.7,0.1,0.74,0.66,0.12,0.08,0.0,0.0,0.0
1752860901471,353.0,-8.0,-88.0,18.0,20.0,-13.0,18.9,10.1,-12.9,0.73,0.67,0.14,0.05,0.0,0.0,0.0
1752860901508,359.0,-7.0,-100.0,-4.0,15.0,-5.0,-2.3,5.5,-3.3,0.65,0.75,0.11,0.01,0.0,0.0,0.0
1752860901543,359.0,-7.0,-101.0,-8.0,14.0,-2.0,-7.2,4.4,-0.7,0.63,0.77,0.1,0.0,0.0,0.0,0.0
1752860901590,356.0,-5.0,-94.0,-9.0,6.0,-1.0,-8.5,-3.9,-0.5,0.67,0.74,0.09,0.02,0.0,0.0,0.0
1752860901626,353.0,-3.0,-90.0,-4.0,11.0,1.0,-3.3,0.9,0.6,0.71,0.7,0.08,0.04,0.0,0.0,0.0
1752860901672,347.0,-0.0,-90.0,0.0,15.0,3.0,1.7,5.2,2.8,0.7,0.7,0.08,0.08,0.0,0.0,0.0
1752860901709,343.0,1.0,-88.0,5.0,16.0,2.0,5.7,6.2,-0.2,0.71,0.69,0.09,0.11,0.0,0.0,0.0
1752860901743,340.0,2.0,-86.0,8.0,13.0,-3.0,7.7,3.6,-3.1,0.72,0.67,0.09,0.12,0.0,0.0,0.0
1752860901793,338.0,3.0,-86.0,8.0,11.0,-2.0,7.2,1.1,-2.4,0.71,0.68,0.09,0.14,0.0,0.0,0.0
1752860901826,339.0,3.0,-83.0,5.0,1.0,-4.0,4.7,-8.9,-5.0,0.73,0.66,0.09,0.14,0.0,0.0,0.0
1752860902227,339.0,4.0,-77.0,-1.0,8.0,-1.0,-3.1,2.9,-1.8,0.77,0.62,0.1,0.12,0.0,0.0,0.0
1752860902228,340.0,15.0,-89.0,2.0,14.0,-4.0,-0.3,3.9,-4.3,0.7,0.7,-0.06,0.12,0.0,0.0,0.0
1752860902262,349.0,14.0,-92.0,4.0,12.0,-4.0,2.1,2.1,-3.3,0.69,0.71,-0.1,0.08,0.0,0.0,0.0
1752860902394,15.0,5.0,-98.0,1.0,5.0,-1.0,0.1,-4.3,0.3,0.68,0.72,-0.13,0.03,0.0,0.0,0.0
1752860902442,24.0,-0.0,-94.0,5.0,1.0,-5.0,5.0,-8.6,-4.4,0.66,0.73,-0.15,-0.13,0.0,0.0,0.0
1752860902790,28.0,4.0,-96.0,2.0,10.0,-4.0,-2.3,0.8,-2.7,0.67,0.71,-0.16,-0.14,0.0,0.0,0.0
1752860902835,12.0,22.0,-95.0,2.0,12.0,-2.0,-2.0,3.3,-0.9,0.68,0.65,-0.35,-0.07,0.0,0.0,0.0
1752860902870,8.0,25.0,-95.0,2.0,12.0,-3.0,-2.3,2.7,-2.4,0.68,0.64,-0.35,-0.05,0.0,0.0,0.0
1752860902917,5.0,27.0,-95.0,1.0,9.0,-4.0,-3.3,0.1,-3.4,0.68,0.64,-0.36,-0.03,0.0,0.0,0.0
1752860902949,4.0,27.0,-93.0,1.0,8.0,-0.0,-3.4,-0.3,-0.1,0.69,0.63,-0.36,-0.03,0.0,0.0,0.0
1752860902996,5.0,26.0,-90.0,-0.0,7.0,-0.0,-4.8,-1.3,-0.4,0.7,0.62,-0.34,-0.03,0.0,0.0,0.0
1752860903250,22.0,13.0,-79.0,3.0,8.0,-4.0,0.5,-1.1,-5.9,0.75,0.58,-0.29,-0.15,0.0,0.0,0.0
1752860903284,26.0,13.0,-84.0,-6.0,4.0,-2.0,-9.9,-0.4,-1.8,0.73,0.6,-0.28,-0.16,0.0,0.0,0.0
1752860903330,28.0,13.0,-90.0,-10.0,11.0,1.0,-12.2,1.1,1.7,0.69,0.63,-0.31,-0.17,0.0,0.0,0.0
1752860903384,27.0,14.0,-100.0,-2.0,12.0,-2.0,-4.1,2.6,-0.2,0.64,0.67,-0.35,-0.15,0.0,0.0,0.0
1752860903417,27.0,16.0,-107.0,2.0,14.0,-5.0,-1.3,5.3,-2.6,0.59,0.69,-0.39,-0.14,0.0,0.0,0.0
1752860904080,33.0,13.0,-105.0,-3.0,10.0,-2.0,-5.7,0.5,-0.1,0.58,0.69,-0.39,-0.17,0.0,0.0,0.0
1752860904147,36.0,12.0,-102.0,-0.0,7.0,-2.0,-2.0,-2.1,-1.7,0.6,0.67,-0.39,-0.19,0.0,0.0,0.0
1752860904940,11.0,20.0,-91.0,1.0,3.0,2.0,-1.3,-6.1,1.0,0.7,0.64,-0.31,-0.06,0.0,0.0,0.0
1752860904990,16.0,15.0,-89.0,0.0,10.0,-1.0,-2.4,1.4,-0.9,0.72,0.64,-0.27,-0.1,0.0,0.0,0.0
1752860906264,346.0,9.0,-85.0,1.0,10.0,-1.0,-0.4,-0.1,-1.9,0.74,0.67,-0.02,0.09,0.0,0.0,0.0
1752860906310,342.0,9.0,-90.0,1.0,14.0,-1.0,-1.1,4.1,-1.4,0.71,0.7,-0.01,0.11,0.0,0.0,0.0
1752860906451,339.0,9.0,-90.0,-3.0,14.0,2.0,-2.2,-2.6,1.7,0.7,0.71,0.01,0.13,0.0,0.0,0.0
1752860906501,342.0,-1.0,-87.0,1.0,6.0,1.0,2.6,-4.0,-1.2,0.72,0.67,0.12,0.12,0.0,0.0,0.0
1752860906737,346.0,-14.0,-84.0,-4.0,8.0,0.0,-2.1,-1.9,-0.6,0.7,0.69,0.17,0.07,0.0,0.0,0.0
1752860906788,341.0,-13.0,-85.0,-4.0,11.0,-0.0,-1.9,1.6,-1.2,0.73,0.62,0.25,0.12,0.0,0.0,0.0
1752860906924,328.0,-7.0,-89.0,2.0,12.0,-3.0,3.3,3.0,-2.3,0.68,0.64,0.28,0.2,0.0,0.0,0.0
1752860906971,321.0,-4.0,-92.0,4.0,13.0,-1.0,5.0,2.6,-0.7,0.65,0.66,0.29,0.23,0.0,0.0,0.0
1752860907009,314.0,1.0,-93.0,6.0,8.0,-4.0,5.9,-1.5,-4.2,0.63,0.67,0.28,0.26,0.0,0.0,0.0
1752860907049,310.0,3.0,-85.0,6.0,2.0,-3.0,5.1,-7.8,-4.0,0.66,0.64,0.26,0.3,0.0,0.0,0.0
1752860907093,309.0,2.0,-80.0,3.0,1.0,-1.0,2.8,-8.6,-3.2,0.69,0.6,0.25,0.33,0.0,0.0,0.0
1752860907135,310.0,-1.0,-77.0,1.0,2.0,-0.0,1.2,-7.2,-3.0,0.71,0.56,0.27,0.33,0.0,0.0,0.0
1752860907178,314.0,-7.0,-74.0,-9.0,22.0,1.0,1.6,-8.9,-4.9,0.73,0.52,0.31,0.31,0.0,0.0,0.0
1752860907212,312.0,-8.0,-76.0,-1.0,6.0,-1.0,-0.1,-3.0,-3.5,0.72,0.52,0.33,0.32,0.0,0.0,0.0
1752860907263,308.0,-6.0,-79.0,-3.0,10.0,-2.0,-1.7,0.3,-3.8,0.7,0.53,0.34,0.34,0.0,0.0,0.0
1752860907297,304.0,-4.0,-83.0,-2.0,15.0,-2.0,-1.3,5.1,-3.0,0.67,0.55,0.35,0.35,0.0,0.0,0.0
1752860907338,300.0,-1.0,-84.0,-3.0,13.0,-3.0,-3.4,3.7,-4.4,0.65,0.58,0.34,0.36,0.0,0.0,0.0
1752860907482,297.0,9.0,-85.0,6.0,11.0,-3.0,4.1,1.1,-4.1,0.64,0.58,0.32,0.39,0.0,0.0,0.0
1752860907534,299.0,11.0,-91.0,7.0,8.0,-8.0,4.9,-1.7,-7.8,0.61,0.67,0.24,0.36,0.0,0.0,0.0
1752860907579,300.0,11.0,-95.0,6.0,7.0,-8.0,3.1,-1.9,-4.9,0.59,0.7,0.23,0.34,0.0,0.0,0.0
1752860907616,300.0,11.0,-97.0,3.0,7.0,-3.0,0.3,-3.6,0.0,0.57,0.71,0.24,0.33,0.0,0.0,0.0
1752860907666,301.0,8.0,-96.0,1.0,5.0,2.0,-0.6,-4.8,2.9,0.57,0.7,0.27,0.33,0.0,0.0,0.0
1752860907700,304.0,3.0,-92.0,-0.0,6.0,4.0,-0.5,-3.5,4.7,0.61,0.66,0.3,0.33,0.0,0.0,0.0
1752860907841,308.0,-1.0,-92.0,-0.0,6.0,-2.0,0.1,-3.3,-1.9,0.61,0.65,0.34,0.3,0.0,0.0,0.0
1752860908001,290.0,8.0,-92.0,2.0,8.0,0.0,0.2,-1.9,0.5,0.62,0.64,0.33,0.31,0.0,0.0,0.0
1752860908033,285.0,10.0,-91.0,2.0,9.0,-1.0,-0.0,0.4,-1.3,0.56,0.63,0.33,0.43,0.0,0.0,0.0
1752860908067,279.0,11.0,-91.0,2.0,12.0,0.0,0.1,2.5,0.5,0.54,0.62,0.34,0.45,0.0,0.0,0.0
1752860908109,276.0,11.0,-92.0,2.0,13.0,-2.0,-0.1,3.0,-1.4,0.52,0.61,0.37,0.47,0.0,0.0,0.0
1752860908179,274.0,10.0,-92.0,-1.0,9.0,-2.0,-2.0,-0.8,-1.2,0.51,0.6,0.39,0.47,0.0,0.0,0.0
1752860908193,274.0,8.0,-91.0,0.0,10.0,0.0,-0.8,-0.0,0.2,0.51,0.58,0.41,0.48,0.0,0.0,0.0
1752860908242,275.0,4.0,-92.0,1.0,8.0,-3.0,0.8,-1.6,-2.4,0.51,0.56,0.44,0.48,0.0,0.0,0.0
1752860908284,276.0,0.0,-93.0,2.0,9.0,-2.0,2.2,-0.9,-1.6,0.51,0.54,0.48,0.46,0.0,0.0,0.0
1752860908425,277.0,-9.0,-86.0,-1.0,3.0,1.0,0.5,-7.0,0.7,0.54,0.5,0.51,0.45,0.0,0.0,0.0
1752860908461,276.0,-8.0,-90.0,-2.0,5.0,-1.0,-1.0,-4.2,-0.4,0.53,0.45,0.54,0.48,0.0,0.0,0.0
1752860908511,277.0,-9.0,-94.0,-4.0,7.0,-2.0,-2.9,-2.2,-1.4,0.52,0.47,0.55,0.45,0.0,0.0,0.0
1752860908645,286.0,-8.0,-102.0,2.0,12.0,-4.0,3.8,2.6,-1.0,0.51,0.49,0.57,0.43,0.0,0.0,0.0
1752860908692,289.0,-7.0,-104.0,5.0,15.0,-5.0,6.3,5.8,-2.5,0.5,0.58,0.53,0.36,0.0,0.0,0.0
1752860908745,289.0,-5.0,-110.0,7.0,14.0,-6.0,7.5,4.2,-2.6,0.47,0.62,0.53,0.33,0.0,0.0,0.0
1752860908779,288.0,-3.0,-109.0,7.0,10.0,-6.0,7.2,-0.2,-2.0,0.47,0.64,0.51,0.34,0.0,0.0,0.0
1752860908824,286.0,-1.0,-109.0,6.0,8.0,-4.0,5.8,-1.8,-0.8,0.46,0.65,0.5,0.35,0.0,0.0,0.0
1752860908862,286.0,-1.0,-106.0,3.0,5.0,-3.0,2.9,-4.6,-0.2,0.48,0.64,0.49,0.36,0.0,0.0,0.0
1752860908901,288.0,-4.0,-104.0,0.0,5.0,-1.0,1.2,-4.2,0.8,0.5,0.61,0.49,0.36,0.0,0.0,0.0
1752860909043,292.0,-16.0,-87.0,1.0,7.0,3.0,3.5,-1.8,2.1,0.52,0.58,0.52,0.36,0.0,0.0,0.0
1752860909089,290.0,-19.0,-84.0,-2.0,10.0,-1.0,0.3,0.5,-1.7,0.61,0.39,0.54,0.43,0.0,0.0,0.0
1752860909230,267.0,-18.0,-90.0,-2.0,12.0,-2.0,0.3,1.8,-1.9,0.49,0.3,0.64,0.51,0.0,0.0,0.0
1752860909273,258.0,-16.0,-87.0,-6.0,8.0,-1.0,-2.8,-1.3,-1.3,0.46,0.27,0.64,0.55,0.0,0.0,0.0
1752860909410,244.0,-16.0,-80.0,2.0,7.0,1.0,5.2,-3.3,-0.5,0.44,0.25,0.62,0.59,0.0,0.0,0.0
1752860909461,243.0,-20.0,-78.0,3.0,-1.0,2.0,6.8,-8.0,-3.2,0.41,0.13,0.61,0.66,0.0,0.0,0.0
1752860910084,227.0,3.0,-92.0,-4.0,6.0,7.0,-4.1,-3.7,7.4,0.28,0.32,0.64,0.64,0.0,0.0,0.0
1752860910112,228.0,3.0,-94.0,-7.0,10.0,3.0,-7.0,0.4,2.4,0.27,0.33,0.65,0.63,0.0,0.0,0.0
1752860910254,246.0,-8.0,-85.0,-2.0,3.0,1.0,-0.2,-6.2,0.6,0.4,0.28,0.61,0.62,0.0,0.0,0.0
1752860910305,246.0,-6.0,-88.0,-0.0,5.0,0.0,1.0,-1.4,1.2,0.4,0.3,0.62,0.61,0.0,0.0,0.0
1752860910359,246.0,-5.0,-89.0,0.0,10.0,-2.0,1.2,-0.3,-2.4,0.39,0.33,0.62,0.6,0.0,0.0,0.0
1752860910394,247.0,-4.0,-90.0,-1.0,9.0,-5.0,-0.6,-0.4,-5.0,0.39,0.35,0.61,0.59,0.0,0.0,0.0
1752860910431,250.0,-3.0,-91.0,-3.0,8.0,-6.0,-2.8,-1.4,-5.6,0.4,0.37,0.61,0.58,0.0,0.0,0.0
1752860910467,253.0,-3.0,-94.0,-4.0,8.0,-6.0,-3.1,-1.9,-4.9,0.4,0.4,0.61,0.56,0.0,0.0,0.0
1752860910503,260.0,-4.0,-96.0,-3.0,11.0,-3.0,-2.3,1.2,-1.5,0.42,0.43,0.61,0.52,0.0,0.0,0.0
1752860910752,287.0,-8.0,-107.0,8.0,12.0,-4.0,8.1,-5.6,1.4,0.45,0.46,0.6,0.48,0.0,0.0,0.0
1752860910802,308.0,-20.0,-102.0,3.0,3.0,-1.0,6.2,-5.4,2.0,0.57,0.53,0.56,0.28,0.0,0.0,0.0
1752860910851,312.0,-19.0,-106.0,3.0,3.0,-1.0,6.2,-5.0,1.8,0.55,0.58,0.55,0.25,0.0,0.0,0.0
1752860910901,311.0,-21.0,-101.0,1.0,8.0,2.0,4.0,-0.8,3.1,0.59,0.54,0.55,0.27,0.0,0.0,0.0
1752860910932,310.0,-20.0,-102.0,0.0,11.0,-0.0,3.4,1.9,1.9,0.58,0.53,0.55,0.27,0.0,0.0,0.0
1752860910968,307.0,-18.0,-103.0,-0.0,13.0,-2.0,2.5,4.3,0.4,0.56,0.55,0.55,0.27,0.0,0.0,0.0
1752860911015,303.0,-17.0,-101.0,-3.0,12.0,-5.0,-1.2,3.0,-1.2,0.56,0.54,0.55,0.3,0.0,0.0,0.0
1752860911159,286.0,-15.0,-88.0,-2.0,11.0,-0.0,0.2,1.4,-0.5,0.57,0.44,0.54,0.43,0.0,0.0,0.0
1752860911299,291.0,-22.0,-90.0,3.0,5.0,-3.0,6.5,-3.6,-2.5,0.58,0.41,0.55,0.44,0.0,0.0,0.0
1752860911343,297.0,-27.0,-91.0,1.0,-8.0,-1.0,5.0,-3.5,1.9,0.59,0.38,0.61,0.37,0.0,0.0,0.0
1752860911402,297.0,-29.0,-88.0,2.0,2.0,2.0,7.0,-5.5,1.5,0.61,0.34,0.61,0.37,0.0,0.0,0.0
1752860911432,298.0,-31.0,-85.0,1.0,4.0,2.0,6.0,-3.4,1.0,0.63,0.31,0.6,0.38,0.0,0.0,0.0
1752860911468,299.0,-31.0,-90.0,-0.0,10.0,-1.0,4.6,1.2,-1.1,0.61,0.33,0.62,0.36,0.0,0.0,0.0
1752860911521,299.0,-30.0,-94.0,-0.0,14.0,-3.0,4.8,5.3,-2.5,0.59,0.36,0.63,0.35,0.0,0.0,0.0
1752860911749,267.0,-11.0,-90.0,1.0,11.0,0.0,2.2,1.0,0.1,0.58,0.36,0.63,0.36,0.0,0.0,0.0
1752860911797,262.0,-9.0,-88.0,0.0,9.0,1.0,2.0,-0.5,0.0,0.47,0.37,0.59,0.54,0.0,0.0,0.0
1752860911845,260.0,-9.0,-87.0,0.0,7.0,-3.0,1.3,-2.1,-3.4,0.47,0.35,0.59,0.56,0.0,0.0,0.0
1752860911876,260.0,-11.0,-85.0,-2.0,10.0,2.0,-0.3,1.1,2.0,0.48,0.33,0.59,0.56,0.0,0.0,0.0
1752860911922,263.0,-15.0,-84.0,-3.0,9.0,3.0,-0.3,0.1,1.7,0.49,0.3,0.6,0.56,0.0,0.0,0.0
1752860911957,267.0,-18.0,-85.0,-2.0,6.0,-1.0,0.8,-3.2,-1.9,0.51,0.3,0.6,0.54,0.0,0.0,0.0
1752860912004,269.0,-17.0,-87.0,-12.0,10.0,4.0,3.8,-11.4,-5.5,0.52,0.3,0.61,0.52,0.0,0.0,0.0
1752860912149,269.0,-11.0,-88.0,0.0,9.0,-4.0,2.2,-0.9,-4.2,0.51,0.38,0.58,0.51,0.0,0.0,0.0
1752860912201,271.0,-10.0,-88.0,-1.0,9.0,-2.0,0.1,-0.6,-2.0,0.51,0.41,0.57,0.5,0.0,0.0,0.0
1752860912249,272.0,-9.0,-87.0,-0.0,12.0,0.0,1.6,3.4,-0.6,0.52,0.42,0.55,0.5,0.0,0.0,0.0
1752860912276,271.0,-5.0,-91.0,4.0,14.0,-3.0,4.8,4.5,-2.8,0.51,0.46,0.54,0.49,0.0,0.0,0.0
1752860912319,270.0,-1.0,-95.0,6.0,15.0,-3.0,6.3,5.4,-2.7,0.48,0.5,0.53,0.48,0.0,0.0,0.0
1752860912365,270.0,0.0,-93.0,5.0,9.0,-3.0,4.5,-0.4,-2.8,0.48,0.51,0.52,0.49,0.0,0.0,0.0
1752860912501,278.0,-6.0,-90.0,0.0,9.0,-2.0,1.7,-0.5,-2.4,0.5,0.5,0.49,0.5,0.0,0.0,0.0
1752860912551,285.0,-12.0,-89.0,-1.0,8.0,-1.0,1.6,-1.7,-1.5,0.56,0.46,0.53,0.44,0.0,0.0,0.0
1752860912598,287.0,-13.0,-92.0,0.0,3.0,-2.0,-2.7,2.4,1.3,0.56,0.47,0.55,0.41,0.0,0.0,0.0
1752860912635,287.0,-13.0,-92.0,-1.0,4.0,-2.0,2.4,-5.8,-1.7,0.56,0.47,0.54,0.41,0.0,0.0,0.0
1752860912668,290.0,-15.0,-84.0,-1.0,7.0,0.0,1.7,-2.5,-0.9,0.6,0.43,0.52,0.42,0.0,0.0,0.0
1752860912718,291.0,-14.0,-88.0,-2.0,8.0,-2.0,0.6,-1.3,-2.5,0.6,0.45,0.52,0.41,0.0,0.0,0.0
1752860912968,286.0,-8.0,-91.0,3.0,12.0,-0.0,4.0,1.4,-0.3,0.57,0.49,0.53,0.39,0.0,0.0,0.0
1752860913001,283.0,-6.0,-90.0,2.0,8.0,-2.0,2.4,-1.5,-2.2,0.55,0.5,0.5,0.44,0.0,0.0,0.0
1752860913052,280.0,-5.0,-90.0,1.0,6.0,-2.0,2.3,-4.0,-1.6,0.54,0.5,0.5,0.46,0.0,0.0,0.0
1752860913085,280.0,-7.0,-86.0,1.0,3.0,0.0,2.6,-6.9,0.0,0.56,0.47,0.49,0.47,0.0,0.0,0.0
1752860913119,284.0,-13.0,-82.0,1.0,4.0,0.0,2.9,-5.8,-0.9,0.59,0.43,0.5,0.47,0.0,0.0,0.0
1752860913169,289.0,-18.0,-86.0,1.0,3.0,-1.0,3.8,-5.8,-1.4,0.6,0.41,0.54,0.44,0.0,0.0,0.0
1752860913402,277.0,-13.0,-90.0,3.0,7.0,-1.0,4.4,-2.8,-1.5,0.6,0.4,0.58,0.39,0.0,0.0,0.0
1752860913452,269.0,-9.0,-88.0,1.0,8.0,0.0,1.9,-1.6,0.5,0.51,0.41,0.56,0.51,0.0,0.0,0.0
1752860914115,281.0,-11.0,-81.0,2.0,11.0,-2.0,4.1,1.3,-3.9,0.59,0.41,0.5,0.47,0.0,0.0,0.0
